"startDate","speaker_timestamps","glb_chain","glb_variant","selected_image","contrastColor","participant_id","color_indices","listener_timestamps","conversation","targetType","glb_realization","condition","endTime","contrastType","distractorType","chain","age","comments","variant","education","listener_chat","languages","selected_type","compType","RT","speaker_chat","distractorColor","targetcompColor","intended_target","gender","trial_number","startTime","timeSpent","realization","anon_worker_id"
"Mon Nov 18 2019 22:23:28 GMT+0100 (Central European Standard Time)","1574112264632",1,2,"orange_lettuce.png","white","41d06c99c77a2df48994fc87383e7c8d86a6e0f6","0|1|2|3",NA,"<strong>Director</strong>: lettuce","lettuce",1,"aan",1574112254494,"swan","egg",1,29,"TEST",2,"Graduated College",NA,"German","target","banana",9591,"lettuce","yellow","orange","target","female",1,1574112208932,0.759366666666667,1,"482467342226241"
"Mon Nov 18 2019 22:23:28 GMT+0100 (Central European Standard Time)","1574112272619",1,2,"white_egg.png","yellow","41d06c99c77a2df48994fc87383e7c8d86a6e0f6","0|1|3|2",NA,"<strong>Director</strong>: white egg","egg",1,"ttp",1574112254494,"egg","tomato",1,29,"TEST",2,"Graduated College",NA,"German","target","swan",8215,"white egg","red","white","target","female",2,1574112208932,0.759366666666667,1,"482467342226241"
"Mon Nov 18 2019 22:23:28 GMT+0100 (Central European Standard Time)","1574112282274",1,2,"orange_pumpkin.png","red","41d06c99c77a2df48994fc87383e7c8d86a6e0f6","2|3|0|1",NA,"<strong>Director</strong>: pumpkin","pumpkin",1,"ttn",1574112254494,"broccoli","lettuce",1,29,"TEST",2,"Graduated College",NA,"German","target","carrot",8441,"pumpkin","green","orange","target","female",3,1574112208932,0.759366666666667,1,"482467342226241"
"Mon Nov 18 2019 22:23:28 GMT+0100 (Central European Standard Time)","1574112289514",1,2,"white_tomato.png","yellow","41d06c99c77a2df48994fc87383e7c8d86a6e0f6","3|0|2|1",NA,"<strong>Director</strong>: white tomato","broccoli",1,"tan",1574112254494,"egg","tomato",1,29,"TEST",2,"Graduated College",NA,"German","thirdDistractor","swan",6631,"white tomato","white","green","thirdDistractor","female",4,1574112208932,0.759366666666667,1,"482467342226241"
"Mon Nov 18 2019 22:23:28 GMT+0100 (Central European Standard Time)","1574112296566",1,2,"green_carrot.png","orange","41d06c99c77a2df48994fc87383e7c8d86a6e0f6","3|0|1|2",NA,"<strong>Director</strong>: green carrot","carrot",1,"aan",1574112254494,"lettuce","tomato",1,29,"TEST",2,"Graduated College",NA,"German","target","swan",6349,"green carrot","white","green","target","female",5,1574112208932,0.759366666666667,1,"482467342226241"
"Mon Nov 18 2019 22:23:28 GMT+0100 (Central European Standard Time)","1574112302123",1,2,"red_broccoli.png","orange","41d06c99c77a2df48994fc87383e7c8d86a6e0f6","1|2|3|0",NA,"<strong>Director</strong>: red brocc","carrot",1,"atn",1574112254494,"banana","broccoli",1,29,"TEST",2,"Graduated College",NA,"German","thirdDistractor","lettuce",4736,"red brocc","red","green","thirdDistractor","female",6,1574112208932,0.759366666666667,1,"482467342226241"
"Mon Nov 18 2019 22:23:28 GMT+0100 (Central European Standard Time)","1574112307038",1,2,"green_broccoli.png","yellow","41d06c99c77a2df48994fc87383e7c8d86a6e0f6","0|1|2|3",NA,"<strong>Director</strong>: brocc","corn",1,"atn",1574112254494,"egg","broccoli",1,29,"TEST",2,"Graduated College",NA,"German","thirdDistractor","tomato",4220,"brocc","green","red","thirdDistractor","female",7,1574112208932,0.759366666666667,1,"482467342226241"
"Mon Nov 18 2019 22:23:28 GMT+0100 (Central European Standard Time)","1574112313195",1,2,"white_pumpkin.png","orange","41d06c99c77a2df48994fc87383e7c8d86a6e0f6","2|1|3|0",NA,"<strong>Director</strong>: white pumpkin","pumpkin",1,"atn",1574112254494,"banana","corn",1,29,"TEST",2,"Graduated College",NA,"German","target","swan",5415,"white pumpkin","yellow","white","target","female",8,1574112208932,0.759366666666667,1,"482467342226241"
"Mon Nov 18 2019 22:23:28 GMT+0100 (Central European Standard Time)","1574112317292",1,2,"white_tomato.png","orange","41d06c99c77a2df48994fc87383e7c8d86a6e0f6","1|2|0|3",NA,"<strong>Director</strong>: tomato","corn",1,"ttn",1574112254494,"pumpkin","tomato",1,29,"TEST",2,"Graduated College",NA,"German","thirdDistractor","banana",4000,"tomato","white","yellow","thirdDistractor","female",9,1574112208932,0.759366666666667,1,"482467342226241"
"Mon Nov 18 2019 22:23:28 GMT+0100 (Central European Standard Time)","1574112324020",1,2,"green_swan.png","green","41d06c99c77a2df48994fc87383e7c8d86a6e0f6","1|2|0|3",NA,"<strong>Director</strong>: swan green","swan",1,"tap",1574112254494,"swan","banana",1,29,"TEST",2,"Graduated College",NA,"German","secondDistractor","pumpkin",5739,"swan green","yellow","white","secondDistractor","female",10,1574112208932,0.759366666666667,1,"482467342226241"
"Mon Nov 18 2019 22:23:28 GMT+0100 (Central European Standard Time)","1574112328546",1,2,"white_tomato.png","green","41d06c99c77a2df48994fc87383e7c8d86a6e0f6","3|2|0|1",NA,"<strong>Director</strong>: tomato","swan",1,"tap",1574112254494,"swan","broccoli",1,29,"TEST",2,"Graduated College",NA,"German","firstDistractor","tomato",3717,"tomato","red","white","firstDistractor","female",11,1574112208932,0.759366666666667,1,"482467342226241"
"Mon Nov 18 2019 22:23:28 GMT+0100 (Central European Standard Time)","1574112332356",1,2,"red_tomato.png","yellow","41d06c99c77a2df48994fc87383e7c8d86a6e0f6","3|2|0|1",NA,"<strong>Director</strong>: tomato","lettuce",1,"atn",1574112254494,"strawberry","tomato",1,29,"TEST",2,"Graduated College",NA,"German","thirdDistractor","pumpkin",3203,"tomato","red","orange","thirdDistractor","female",12,1574112208932,0.759366666666667,1,"482467342226241"
"Mon Nov 18 2019 22:23:28 GMT+0100 (Central European Standard Time)","1574112337154",1,2,"orange_carrot.png","white","41d06c99c77a2df48994fc87383e7c8d86a6e0f6","2|1|3|0",NA,"<strong>Director</strong>: carrot","carrot",1,"ttn",1574112254494,"swan","banana",1,29,"TEST",2,"Graduated College",NA,"German","target","pumpkin",4214,"carrot","yellow","orange","target","female",13,1574112208932,0.759366666666667,1,"482467342226241"
"Mon Nov 18 2019 22:23:28 GMT+0100 (Central European Standard Time)","1574112341219",1,2,"red_corn.png","orange","41d06c99c77a2df48994fc87383e7c8d86a6e0f6","2|0|3|1",NA,"<strong>Director</strong>: corn","corn",1,"atn",1574112254494,"lettuce","egg",1,29,"TEST",2,"Graduated College",NA,"German","target","strawberry",3177,"corn","yellow","red","target","female",14,1574112208932,0.759366666666667,1,"482467342226241"
"Mon Nov 18 2019 22:23:28 GMT+0100 (Central European Standard Time)","1574112345565",1,2,"red_broccoli.png","red","41d06c99c77a2df48994fc87383e7c8d86a6e0f6","2|1|0|3",NA,"<strong>Director</strong>: brocc","broccoli",1,"tap",1574112254494,"broccoli","tomato",1,29,"TEST",2,"Graduated College",NA,"German","secondDistractor","swan",3652,"brocc","white","green","secondDistractor","female",15,1574112208932,0.759366666666667,1,"482467342226241"
"Mon Nov 18 2019 22:23:28 GMT+0100 (Central European Standard Time)","1574112351410",1,2,"white_pumpkin.png","yellow","41d06c99c77a2df48994fc87383e7c8d86a6e0f6","1|3|0|2",NA,"<strong>Director</strong>: white pumpkin","pumpkin",1,"aan",1574112254494,"corn","lettuce",1,29,"TEST",2,"Graduated College",NA,"German","target","tomato",5934,"white pumpkin","orange","white","target","female",16,1574112208932,0.759366666666667,1,"482467342226241"
"Mon Nov 18 2019 22:23:28 GMT+0100 (Central European Standard Time)","1574112355914",1,2,"yellow_banana.png","white","41d06c99c77a2df48994fc87383e7c8d86a6e0f6","0|2|1|3",NA,"<strong>Director</strong>: ban","strawberry",1,"tan",1574112254494,"swan","banana",1,29,"TEST",2,"Graduated College",NA,"German","thirdDistractor","corn",3190,"ban","yellow","red","thirdDistractor","female",17,1574112208932,0.759366666666667,1,"482467342226241"
"Mon Nov 18 2019 22:23:28 GMT+0100 (Central European Standard Time)","1574112359203",1,2,"yellow_banana.png","white","41d06c99c77a2df48994fc87383e7c8d86a6e0f6","1|2|0|3",NA,"<strong>Director</strong>: ban","banana",1,"ttn",1574112254494,"pumpkin","lettuce",1,29,"TEST",2,"Graduated College",NA,"German","target","corn",2743,"ban","green","yellow","target","female",18,1574112208932,0.759366666666667,1,"482467342226241"
"Mon Nov 18 2019 22:23:28 GMT+0100 (Central European Standard Time)","1574112362997",1,2,"white_egg.png","green","41d06c99c77a2df48994fc87383e7c8d86a6e0f6","0|1|2|3",NA,"<strong>Director</strong>: egg","swan",1,"ttp",1574112254494,"swan","corn",1,29,"TEST",2,"Graduated College",NA,"German","firstDistractor","egg",3751,"egg","yellow","white","firstDistractor","female",19,1574112208932,0.759366666666667,1,"482467342226241"
"Mon Nov 18 2019 22:23:28 GMT+0100 (Central European Standard Time)","1574112368204",1,2,"green_carrot.png","white","41d06c99c77a2df48994fc87383e7c8d86a6e0f6","1|2|3|0",NA,"<strong>Director</strong>: carrot","egg",1,"atn",1574112254494,"tomato","carrot",1,29,"TEST",2,"Graduated College",NA,"German","thirdDistractor","banana",4131,"carrot","green","yellow","thirdDistractor","female",20,1574112208932,0.759366666666667,1,"482467342226241"
"Mon Nov 18 2019 22:23:28 GMT+0100 (Central European Standard Time)","1574112373426|||1574112377563",1,2,"orange_lettuce.png","white","41d06c99c77a2df48994fc87383e7c8d86a6e0f6","2|0|1|3",NA,"<strong>Director</strong>: lettuc3\n<strong>Director</strong>: \nlettuce","pumpkin",1,"tap",1574112254494,"pumpkin","tomato",1,29,"TEST",2,"Graduated College",NA,"German","firstDistractor","lettuce",8920,"lettuc3|||\nlettuce","red","orange","firstDistractor","female",21,1574112208932,0.759366666666667,1,"482467342226241"
"Mon Nov 18 2019 22:23:28 GMT+0100 (Central European Standard Time)","1574112382073",1,2,"yellow_corn.png","orange","41d06c99c77a2df48994fc87383e7c8d86a6e0f6","0|2|3|1",NA,"<strong>Director</strong>: corn","pumpkin",1,"atn",1574112254494,"lettuce","corn",1,29,"TEST",2,"Graduated College",NA,"German","thirdDistractor","egg",3620,"corn","yellow","white","thirdDistractor","female",22,1574112208932,0.759366666666667,1,"482467342226241"
"Mon Nov 18 2019 22:23:28 GMT+0100 (Central European Standard Time)","1574112387127|||1574112395808",1,2,"yellow_corn.png","yellow","41d06c99c77a2df48994fc87383e7c8d86a6e0f6","1|3|2|0","1574112392120","<strong>Director</strong>: corn\n<strong>Matcher</strong>: which one\n<strong>Director</strong>: yellow","corn",1,"atp",1574112254494,"corn","pumpkin",1,29,"TEST",2,"Graduated College","which one","German","secondDistractor","strawberry",13060,"corn|||yellow","white","red","secondDistractor","female",23,1574112208932,0.759366666666667,1,"482467342226241"
"Mon Nov 18 2019 22:23:28 GMT+0100 (Central European Standard Time)","1574112402247",1,2,"yellow_egg.png","orange","41d06c99c77a2df48994fc87383e7c8d86a6e0f6","0|2|1|3",NA,"<strong>Director</strong>: egg","egg",1,"atn",1574112254494,"carrot","lettuce",1,29,"TEST",2,"Graduated College",NA,"German","target","corn",5672,"egg","green","yellow","target","female",24,1574112208932,0.759366666666667,1,"482467342226241"
"Mon Nov 18 2019 22:23:28 GMT+0100 (Central European Standard Time)","1574112407132",1,2,"red_tomato.png","orange","41d06c99c77a2df48994fc87383e7c8d86a6e0f6","3|1|2|0",NA,"<strong>Director</strong>: tomato","tomato",1,"tan",1574112254494,"banana","pumpkin",1,29,"TEST",2,"Graduated College",NA,"German","target","broccoli",4253,"tomato","white","red","target","female",25,1574112208932,0.759366666666667,1,"482467342226241"
"Mon Nov 18 2019 22:23:28 GMT+0100 (Central European Standard Time)","1574112414886",1,2,"orange_lettuce.png","green","41d06c99c77a2df48994fc87383e7c8d86a6e0f6","3|2|1|0",NA,"<strong>Director</strong>: lettuce orange","lettuce",1,"atp",1574112254494,"lettuce","corn",1,29,"TEST",2,"Graduated College",NA,"German","target","pumpkin",7116,"lettuce orange","red","orange","target","female",26,1574112208932,0.759366666666667,1,"482467342226241"
"Mon Nov 18 2019 22:23:28 GMT+0100 (Central European Standard Time)","1574112419588",1,2,"red_broccoli.png","red","41d06c99c77a2df48994fc87383e7c8d86a6e0f6","0|3|2|1",NA,"<strong>Director</strong>: brocc","broccoli",1,"tap",1574112254494,"broccoli","swan",1,29,"TEST",2,"Graduated College",NA,"German","secondDistractor","carrot",4416,"brocc","white","green","secondDistractor","female",27,1574112208932,0.759366666666667,1,"482467342226241"
"Mon Nov 18 2019 22:23:28 GMT+0100 (Central European Standard Time)","1574112423966",1,2,"yellow_corn.png","green","41d06c99c77a2df48994fc87383e7c8d86a6e0f6","2|3|1|0",NA,"<strong>Director</strong>: corn","tomato",1,"ttn",1574112254494,"broccoli","corn",1,29,"TEST",2,"Graduated College",NA,"German","thirdDistractor","strawberry",3253,"corn","yellow","red","thirdDistractor","female",28,1574112208932,0.759366666666667,1,"482467342226241"
"Mon Nov 18 2019 22:23:28 GMT+0100 (Central European Standard Time)","1574112428620",1,2,"orange_banana.png","orange","41d06c99c77a2df48994fc87383e7c8d86a6e0f6","1|2|0|3",NA,"<strong>Director</strong>: or ban","banana",1,"tap",1574112254494,"banana","swan",1,29,"TEST",2,"Graduated College",NA,"German","secondDistractor","egg",4013,"or ban","white","yellow","secondDistractor","female",29,1574112208932,0.759366666666667,1,"482467342226241"
"Mon Nov 18 2019 22:23:28 GMT+0100 (Central European Standard Time)","1574112434265",1,2,"orange_pumpkin.png","orange","41d06c99c77a2df48994fc87383e7c8d86a6e0f6","0|1|2|3",NA,"<strong>Director</strong>: or pumpkin","pumpkin",1,"atp",1574112254494,"pumpkin","banana",1,29,"TEST",2,"Graduated College",NA,"German","secondDistractor","egg",5259,"or pumpkin","yellow","white","secondDistractor","female",30,1574112208932,0.759366666666667,1,"482467342226241"
"Mon Nov 18 2019 22:23:28 GMT+0100 (Central European Standard Time)","1574112439736",1,2,"yellow_corn.png","green","41d06c99c77a2df48994fc87383e7c8d86a6e0f6","0|2|1|3",NA,"<strong>Director</strong>: yel corn","egg",1,"tan",1574112254494,"broccoli","corn",1,29,"TEST",2,"Graduated College",NA,"German","thirdDistractor","tomato",4549,"yel corn","yellow","white","thirdDistractor","female",31,1574112208932,0.759366666666667,1,"482467342226241"
"Mon Nov 18 2019 22:23:28 GMT+0100 (Central European Standard Time)","1574112444508",1,2,"red_broccoli.png","green","41d06c99c77a2df48994fc87383e7c8d86a6e0f6","3|0|2|1",NA,"<strong>Director</strong>: red brocc","broccoli",1,"aan",1574112254494,"lettuce","banana",1,29,"TEST",2,"Graduated College",NA,"German","target","corn",4300,"red brocc","orange","red","target","female",32,1574112208932,0.759366666666667,1,"482467342226241"
"Mon Nov 18 2019 22:23:28 GMT+0100 (Central European Standard Time)","1574112451517",1,2,"red_strawberry.png","yellow","41d06c99c77a2df48994fc87383e7c8d86a6e0f6","3|1|0|2",NA,"<strong>Director</strong>: red strawb","strawberry",1,"tap",1574112254494,"strawberry","carrot",1,29,"TEST",2,"Graduated College",NA,"German","target","corn",6467,"red strawb","orange","red","target","female",33,1574112208932,0.759366666666667,1,"482467342226241"
"Mon Nov 18 2019 22:23:28 GMT+0100 (Central European Standard Time)","1574112457515",1,2,"red_tomato.png","white","41d06c99c77a2df48994fc87383e7c8d86a6e0f6","3|0|1|2",NA,"<strong>Director</strong>: red tomato","tomato",1,"ttp",1574112254494,"tomato","corn",1,29,"TEST",2,"Graduated College",NA,"German","target","strawberry",5565,"red tomato","yellow","red","target","female",34,1574112208932,0.759366666666667,1,"482467342226241"
"Mon Nov 18 2019 22:23:28 GMT+0100 (Central European Standard Time)","1574112464384",1,2,"green_carrot.png","orange","41d06c99c77a2df48994fc87383e7c8d86a6e0f6","3|2|1|0",NA,"<strong>Director</strong>: green carrot","carrot",1,"aap",1574112254494,"carrot","tomato",1,29,"TEST",2,"Graduated College",NA,"German","target","swan",5964,"green carrot","white","green","target","female",35,1574112208932,0.759366666666667,1,"482467342226241"
"Mon Nov 18 2019 22:23:28 GMT+0100 (Central European Standard Time)","1574112470751",1,2,"green_lettuce.png","yellow","41d06c99c77a2df48994fc87383e7c8d86a6e0f6","3|2|1|0",NA,"<strong>Director</strong>: lettuce","lettuce",1,"tan",1574112254494,"strawberry","tomato",1,29,"TEST",2,"Graduated College",NA,"German","target","swan",5470,"lettuce","red","green","target","female",36,1574112208932,0.759366666666667,1,"482467342226241"
"Mon Nov 18 2019 22:23:28 GMT+0100 (Central European Standard Time)","1574112475536",1,2,"orange_lettuce.png","white","41d06c99c77a2df48994fc87383e7c8d86a6e0f6","3|2|1|0",NA,"<strong>Director</strong>: lett","lettuce",1,"atn",1574112254494,"pumpkin","broccoli",1,29,"TEST",2,"Graduated College",NA,"German","target","carrot",4137,"lett","green","orange","target","female",37,1574112208932,0.759366666666667,1,"482467342226241"
"Mon Nov 18 2019 22:23:28 GMT+0100 (Central European Standard Time)","1574112480302",1,2,"white_swan.png","green","41d06c99c77a2df48994fc87383e7c8d86a6e0f6","0|2|3|1",NA,"<strong>Director</strong>: swan","banana",1,"atn",1574112254494,"broccoli","swan",1,29,"TEST",2,"Graduated College",NA,"German","thirdDistractor","pumpkin",4104,"swan","white","orange","thirdDistractor","female",38,1574112208932,0.759366666666667,1,"482467342226241"
"Mon Nov 18 2019 22:23:28 GMT+0100 (Central European Standard Time)","1574112483950",1,2,"yellow_egg.png","white","41d06c99c77a2df48994fc87383e7c8d86a6e0f6","1|3|2|0",NA,"<strong>Director</strong>: egg","strawberry",1,"tan",1574112254494,"pumpkin","egg",1,29,"TEST",2,"Graduated College",NA,"German","thirdDistractor","broccoli",3372,"egg","yellow","red","thirdDistractor","female",39,1574112208932,0.759366666666667,1,"482467342226241"
"Mon Nov 18 2019 22:23:28 GMT+0100 (Central European Standard Time)","1574112491632",1,2,"red_corn.png","white","41d06c99c77a2df48994fc87383e7c8d86a6e0f6","2|1|0|3",NA,"<strong>Director</strong>: corn","pumpkin",1,"tap",1574112254494,"pumpkin","corn",1,29,"TEST",2,"Graduated College",NA,"German","thirdDistractor","banana",6953,"corn","red","orange","thirdDistractor","female",40,1574112208932,0.759366666666667,1,"482467342226241"
"Mon Nov 18 2019 22:23:28 GMT+0100 (Central European Standard Time)","1574112497184",1,2,"orange_lettuce.png","orange","41d06c99c77a2df48994fc87383e7c8d86a6e0f6","1|2|3|0",NA,"<strong>Director</strong>: orange lett","lettuce",1,"tap",1574112254494,"lettuce","pumpkin",1,29,"TEST",2,"Graduated College",NA,"German","secondDistractor","swan",4673,"orange lett","white","green","secondDistractor","female",41,1574112208932,0.759366666666667,1,"482467342226241"
"Mon Nov 18 2019 22:23:28 GMT+0100 (Central European Standard Time)","1574112503286",1,2,"white_tomato.png","red","41d06c99c77a2df48994fc87383e7c8d86a6e0f6","1|2|0|3",NA,"<strong>Director</strong>: white tomato","tomato",1,"aap",1574112254494,"tomato","lettuce",1,29,"TEST",2,"Graduated College",NA,"German","target","pumpkin",5652,"white tomato","orange","white","target","female",42,1574112208932,0.759366666666667,1,"482467342226241"
"Mon Nov 18 2019 22:23:28 GMT+0100 (Central European Standard Time)","1574112507860",1,2,"white_tomato.png","green","41d06c99c77a2df48994fc87383e7c8d86a6e0f6","3|2|1|0",NA,"<strong>Director</strong>: tomato","carrot",1,"ttp",1574112254494,"carrot","tomato",1,29,"TEST",2,"Graduated College",NA,"German","thirdDistractor","pumpkin",4003,"tomato","white","orange","thirdDistractor","female",43,1574112208932,0.759366666666667,1,"482467342226241"
"Mon Nov 18 2019 22:23:28 GMT+0100 (Central European Standard Time)","1574112512445",1,2,"red_corn.png","white","41d06c99c77a2df48994fc87383e7c8d86a6e0f6","1|0|3|2",NA,"<strong>Director</strong>: corn","carrot",1,"tan",1574112254494,"swan","corn",1,29,"TEST",2,"Graduated College",NA,"German","thirdDistractor","banana",3836,"corn","red","orange","thirdDistractor","female",44,1574112208932,0.759366666666667,1,"482467342226241"
"Mon Nov 18 2019 22:23:28 GMT+0100 (Central European Standard Time)","1574112517412",1,2,"orange_banana.png","green","41d06c99c77a2df48994fc87383e7c8d86a6e0f6","0|2|1|3",NA,"<strong>Director</strong>: or ban","lettuce",1,"aap",1574112254494,"lettuce","pumpkin",1,29,"TEST",2,"Graduated College",NA,"German","firstDistractor","banana",4440,"or ban","white","orange","firstDistractor","female",45,1574112208932,0.759366666666667,1,"482467342226241"
"Mon Nov 18 2019 22:23:28 GMT+0100 (Central European Standard Time)","1574112523391",1,2,"orange_carrot.png","yellow","41d06c99c77a2df48994fc87383e7c8d86a6e0f6","2|0|1|3",NA,"<strong>Director</strong>: or carrot","banana",1,"atp",1574112254494,"banana","broccoli",1,29,"TEST",2,"Graduated College",NA,"German","firstDistractor","carrot",4736,"or carrot","green","orange","firstDistractor","female",46,1574112208932,0.759366666666667,1,"482467342226241"
"Mon Nov 18 2019 22:23:28 GMT+0100 (Central European Standard Time)","1574112530722",1,2,"yellow_strawberry.png","green","41d06c99c77a2df48994fc87383e7c8d86a6e0f6","2|1|3|0",NA,"<strong>Director</strong>: yel strawb","egg",1,"tan",1574112254494,"lettuce","strawberry",1,29,"TEST",2,"Graduated College",NA,"German","thirdDistractor","pumpkin",7022,"yel strawb","yellow","white","thirdDistractor","female",47,1574112208932,0.759366666666667,1,"482467342226241"
"Mon Nov 18 2019 22:23:28 GMT+0100 (Central European Standard Time)","1574112538256",1,2,"green_lettuce.png","white","41d06c99c77a2df48994fc87383e7c8d86a6e0f6","1|2|3|0",NA,"<strong>Director</strong>: green lettuce","swan",1,"atp",1574112254494,"swan","banana",1,29,"TEST",2,"Graduated College",NA,"German","firstDistractor","lettuce",6769,"green lettuce","orange","green","firstDistractor","female",48,1574112208932,0.759366666666667,1,"482467342226241"
"Mon Nov 18 2019 22:23:28 GMT+0100 (Central European Standard Time)","1574112543466",1,2,"white_swan.png","yellow","41d06c99c77a2df48994fc87383e7c8d86a6e0f6","2|0|3|1",NA,"<strong>Director</strong>: white swan","swan",1,"tan",1574112254494,"strawberry","pumpkin",1,29,"TEST",2,"Graduated College",NA,"German","target","tomato",4528,"white swan","orange","white","target","female",49,1574112208932,0.759366666666667,1,"482467342226241"
"Mon Nov 18 2019 22:23:28 GMT+0100 (Central European Standard Time)","1574112548656",1,2,"orange_carrot.png","white","41d06c99c77a2df48994fc87383e7c8d86a6e0f6","1|2|3|0",NA,"<strong>Director</strong>: carrot","pumpkin",1,"ttp",1574112254494,"pumpkin","banana",1,29,"TEST",2,"Graduated College",NA,"German","firstDistractor","carrot",4625,"carrot","yellow","orange","firstDistractor","female",50,1574112208932,0.759366666666667,1,"482467342226241"
"Mon Nov 18 2019 22:23:28 GMT+0100 (Central European Standard Time)","1574112553981",1,2,"red_strawberry.png","yellow","41d06c99c77a2df48994fc87383e7c8d86a6e0f6","1|3|0|2",NA,"<strong>Director</strong>: strawb","banana",1,"atn",1574112254494,"egg","strawberry",1,29,"TEST",2,"Graduated College",NA,"German","thirdDistractor","carrot",4523,"strawb","red","orange","thirdDistractor","female",51,1574112208932,0.759366666666667,1,"482467342226241"
"Mon Nov 18 2019 22:23:28 GMT+0100 (Central European Standard Time)","1574112558274",1,2,"orange_banana.png","green","41d06c99c77a2df48994fc87383e7c8d86a6e0f6","3|2|0|1",NA,"<strong>Director</strong>: ban","tomato",1,"atn",1574112254494,"lettuce","banana",1,29,"TEST",2,"Graduated College",NA,"German","thirdDistractor","swan",3888,"ban","orange","white","thirdDistractor","female",52,1574112208932,0.759366666666667,1,"482467342226241"
"Mon Nov 18 2019 22:23:28 GMT+0100 (Central European Standard Time)","1574112564030",1,2,"green_carrot.png","orange","41d06c99c77a2df48994fc87383e7c8d86a6e0f6","0|3|2|1",NA,"<strong>Director</strong>: green carrot","carrot",1,"atp",1574112254494,"carrot","banana",1,29,"TEST",2,"Graduated College",NA,"German","target","broccoli",5050,"green carrot","yellow","green","target","female",53,1574112208932,0.759366666666667,1,"482467342226241"
"Mon Nov 18 2019 22:23:28 GMT+0100 (Central European Standard Time)","1574112569432",1,2,"white_egg.png","yellow","41d06c99c77a2df48994fc87383e7c8d86a6e0f6","0|1|3|2",NA,"<strong>Director</strong>: white egg","egg",1,"ttn",1574112254494,"corn","lettuce",1,29,"TEST",2,"Graduated College",NA,"German","target","swan",6102,"white egg","orange","white","target","female",54,1574112208932,0.759366666666667,1,"482467342226241"
"Mon Nov 18 2019 22:23:28 GMT+0100 (Central European Standard Time)","1574112578293",1,2,"yellow_strawberry.png","orange","41d06c99c77a2df48994fc87383e7c8d86a6e0f6","0|2|1|3",NA,"<strong>Director</strong>: strawb","carrot",1,"atn",1574112254494,"lettuce","strawberry",1,29,"TEST",2,"Graduated College",NA,"German","thirdDistractor","broccoli",6900,"strawb","yellow","green","thirdDistractor","female",55,1574112208932,0.759366666666667,1,"482467342226241"
"Mon Nov 18 2019 22:23:28 GMT+0100 (Central European Standard Time)","1574112582720",1,2,"yellow_corn.png","white","41d06c99c77a2df48994fc87383e7c8d86a6e0f6","2|0|1|3",NA,"<strong>Director</strong>: corn","corn",1,"tan",1574112254494,"tomato","strawberry",1,29,"TEST",2,"Graduated College",NA,"German","target","egg",3860,"corn","red","yellow","target","female",56,1574112208932,0.759366666666667,1,"482467342226241"
"Mon Nov 18 2019 22:23:28 GMT+0100 (Central European Standard Time)","1574112587561",1,2,"white_tomato.png","red","41d06c99c77a2df48994fc87383e7c8d86a6e0f6","3|0|2|1",NA,"<strong>Director</strong>: tom","banana",1,"tan",1574112254494,"broccoli","tomato",1,29,"TEST",2,"Graduated College",NA,"German","thirdDistractor","egg",3829,"tom","white","yellow","thirdDistractor","female",57,1574112208932,0.759366666666667,1,"482467342226241"
"Mon Nov 18 2019 22:23:28 GMT+0100 (Central European Standard Time)","1574112591381|||1574112599012",1,2,"white_egg.png","white","41d06c99c77a2df48994fc87383e7c8d86a6e0f6","0|1|3|2","1574112597766","<strong>Director</strong>: egg\n<strong>Matcher</strong>: white?\n<strong>Director</strong>: \nwhite","egg",1,"atp",1574112254494,"egg","broccoli",1,29,"TEST",2,"Graduated College","white?","German","secondDistractor","corn",11595,"egg|||\nwhite","red","yellow","secondDistractor","female",58,1574112208932,0.759366666666667,1,"482467342226241"
"Mon Nov 18 2019 22:23:28 GMT+0100 (Central European Standard Time)","1574112605287",1,2,"orange_lettuce.png","yellow","41d06c99c77a2df48994fc87383e7c8d86a6e0f6","3|0|2|1",NA,"<strong>Director</strong>: lettuce","banana",1,"aap",1574112254494,"banana","swan",1,29,"TEST",2,"Graduated College",NA,"German","firstDistractor","lettuce",5283,"lettuce","green","orange","firstDistractor","female",59,1574112208932,0.759366666666667,1,"482467342226241"
"Mon Nov 18 2019 22:23:28 GMT+0100 (Central European Standard Time)","1574112610277",1,2,"red_tomato.png","white","41d06c99c77a2df48994fc87383e7c8d86a6e0f6","3|2|0|1",NA,"<strong>Director</strong>: tom","tomato",1,"tap",1574112254494,"tomato","lettuce",1,29,"TEST",2,"Graduated College",NA,"German","target","broccoli",4169,"tom","green","red","target","female",60,1574112208932,0.759366666666667,1,"482467342226241"
"Mon Nov 18 2019 22:23:25 GMT+0100 (Central European Standard Time)","1574112264632",1,1,"orange_lettuce.png","white","00d53881d444555746a8ca2e99e963dde63c8023","0|1|2|3",NA,"<strong>Director</strong>: lettuce","lettuce",1,"aan",1574112251434,"swan","egg",1,24,"TEST",1,"Graduated College",NA,"German","target","banana",9591,"lettuce","yellow","orange","target","female",1,1574112205282,0.7692,1,"482467342226241"
"Mon Nov 18 2019 22:23:25 GMT+0100 (Central European Standard Time)","1574112272619",1,1,"white_egg.png","yellow","00d53881d444555746a8ca2e99e963dde63c8023","1|2|0|3",NA,"<strong>Director</strong>: white egg","egg",1,"ttp",1574112251434,"egg","tomato",1,24,"TEST",1,"Graduated College",NA,"German","target","swan",8215,"white egg","red","white","target","female",2,1574112205282,0.7692,1,"482467342226241"
"Mon Nov 18 2019 22:23:25 GMT+0100 (Central European Standard Time)","1574112282274",1,1,"orange_pumpkin.png","red","00d53881d444555746a8ca2e99e963dde63c8023","0|2|1|3",NA,"<strong>Director</strong>: pumpkin","pumpkin",1,"ttn",1574112251434,"broccoli","lettuce",1,24,"TEST",1,"Graduated College",NA,"German","target","carrot",8441,"pumpkin","green","orange","target","female",3,1574112205282,0.7692,1,"482467342226241"
"Mon Nov 18 2019 22:23:25 GMT+0100 (Central European Standard Time)","1574112289514",1,1,"white_tomato.png","yellow","00d53881d444555746a8ca2e99e963dde63c8023","1|0|3|2",NA,"<strong>Director</strong>: white tomato","broccoli",1,"tan",1574112251434,"egg","tomato",1,24,"TEST",1,"Graduated College",NA,"German","thirdDistractor","swan",6631,"white tomato","white","green","thirdDistractor","female",4,1574112205282,0.7692,1,"482467342226241"
"Mon Nov 18 2019 22:23:25 GMT+0100 (Central European Standard Time)","1574112296566",1,1,"green_carrot.png","orange","00d53881d444555746a8ca2e99e963dde63c8023","2|1|0|3",NA,"<strong>Director</strong>: green carrot","carrot",1,"aan",1574112251434,"lettuce","tomato",1,24,"TEST",1,"Graduated College",NA,"German","target","swan",6349,"green carrot","white","green","target","female",5,1574112205282,0.7692,1,"482467342226241"
"Mon Nov 18 2019 22:23:25 GMT+0100 (Central European Standard Time)","1574112302123",1,1,"red_broccoli.png","orange","00d53881d444555746a8ca2e99e963dde63c8023","1|3|2|0",NA,"<strong>Director</strong>: red brocc","carrot",1,"atn",1574112251434,"banana","broccoli",1,24,"TEST",1,"Graduated College",NA,"German","thirdDistractor","lettuce",4736,"red brocc","red","green","thirdDistractor","female",6,1574112205282,0.7692,1,"482467342226241"
"Mon Nov 18 2019 22:23:25 GMT+0100 (Central European Standard Time)","1574112307038",1,1,"green_broccoli.png","yellow","00d53881d444555746a8ca2e99e963dde63c8023","3|1|2|0",NA,"<strong>Director</strong>: brocc","corn",1,"atn",1574112251434,"egg","broccoli",1,24,"TEST",1,"Graduated College",NA,"German","thirdDistractor","tomato",4220,"brocc","green","red","thirdDistractor","female",7,1574112205282,0.7692,1,"482467342226241"
"Mon Nov 18 2019 22:23:25 GMT+0100 (Central European Standard Time)","1574112313195",1,1,"white_pumpkin.png","orange","00d53881d444555746a8ca2e99e963dde63c8023","1|3|2|0",NA,"<strong>Director</strong>: white pumpkin","pumpkin",1,"atn",1574112251434,"banana","corn",1,24,"TEST",1,"Graduated College",NA,"German","target","swan",5415,"white pumpkin","yellow","white","target","female",8,1574112205282,0.7692,1,"482467342226241"
"Mon Nov 18 2019 22:23:25 GMT+0100 (Central European Standard Time)","1574112317292",1,1,"white_tomato.png","orange","00d53881d444555746a8ca2e99e963dde63c8023","2|1|0|3",NA,"<strong>Director</strong>: tomato","corn",1,"ttn",1574112251434,"pumpkin","tomato",1,24,"TEST",1,"Graduated College",NA,"German","thirdDistractor","banana",4000,"tomato","white","yellow","thirdDistractor","female",9,1574112205282,0.7692,1,"482467342226241"
"Mon Nov 18 2019 22:23:25 GMT+0100 (Central European Standard Time)","1574112324020",1,1,"green_swan.png","green","00d53881d444555746a8ca2e99e963dde63c8023","0|1|3|2",NA,"<strong>Director</strong>: swan green","swan",1,"tap",1574112251434,"swan","banana",1,24,"TEST",1,"Graduated College",NA,"German","secondDistractor","pumpkin",5739,"swan green","yellow","white","secondDistractor","female",10,1574112205282,0.7692,1,"482467342226241"
"Mon Nov 18 2019 22:23:25 GMT+0100 (Central European Standard Time)","1574112328546",1,1,"white_tomato.png","green","00d53881d444555746a8ca2e99e963dde63c8023","1|0|3|2",NA,"<strong>Director</strong>: tomato","swan",1,"tap",1574112251434,"swan","broccoli",1,24,"TEST",1,"Graduated College",NA,"German","firstDistractor","tomato",3717,"tomato","red","white","firstDistractor","female",11,1574112205282,0.7692,1,"482467342226241"
"Mon Nov 18 2019 22:23:25 GMT+0100 (Central European Standard Time)","1574112332356",1,1,"red_tomato.png","yellow","00d53881d444555746a8ca2e99e963dde63c8023","1|2|0|3",NA,"<strong>Director</strong>: tomato","lettuce",1,"atn",1574112251434,"strawberry","tomato",1,24,"TEST",1,"Graduated College",NA,"German","thirdDistractor","pumpkin",3203,"tomato","red","orange","thirdDistractor","female",12,1574112205282,0.7692,1,"482467342226241"
"Mon Nov 18 2019 22:23:25 GMT+0100 (Central European Standard Time)","1574112337154",1,1,"orange_carrot.png","white","00d53881d444555746a8ca2e99e963dde63c8023","0|2|1|3",NA,"<strong>Director</strong>: carrot","carrot",1,"ttn",1574112251434,"swan","banana",1,24,"TEST",1,"Graduated College",NA,"German","target","pumpkin",4214,"carrot","yellow","orange","target","female",13,1574112205282,0.7692,1,"482467342226241"
"Mon Nov 18 2019 22:23:25 GMT+0100 (Central European Standard Time)","1574112341219",1,1,"red_corn.png","orange","00d53881d444555746a8ca2e99e963dde63c8023","0|1|2|3",NA,"<strong>Director</strong>: corn","corn",1,"atn",1574112251434,"lettuce","egg",1,24,"TEST",1,"Graduated College",NA,"German","target","strawberry",3177,"corn","yellow","red","target","female",14,1574112205282,0.7692,1,"482467342226241"
"Mon Nov 18 2019 22:23:25 GMT+0100 (Central European Standard Time)","1574112345565",1,1,"red_broccoli.png","red","00d53881d444555746a8ca2e99e963dde63c8023","2|3|0|1",NA,"<strong>Director</strong>: brocc","broccoli",1,"tap",1574112251434,"broccoli","tomato",1,24,"TEST",1,"Graduated College",NA,"German","secondDistractor","swan",3652,"brocc","white","green","secondDistractor","female",15,1574112205282,0.7692,1,"482467342226241"
"Mon Nov 18 2019 22:23:25 GMT+0100 (Central European Standard Time)","1574112351410",1,1,"white_pumpkin.png","yellow","00d53881d444555746a8ca2e99e963dde63c8023","2|3|0|1",NA,"<strong>Director</strong>: white pumpkin","pumpkin",1,"aan",1574112251434,"corn","lettuce",1,24,"TEST",1,"Graduated College",NA,"German","target","tomato",5934,"white pumpkin","orange","white","target","female",16,1574112205282,0.7692,1,"482467342226241"
"Mon Nov 18 2019 22:23:25 GMT+0100 (Central European Standard Time)","1574112355914",1,1,"yellow_banana.png","white","00d53881d444555746a8ca2e99e963dde63c8023","0|1|3|2",NA,"<strong>Director</strong>: ban","strawberry",1,"tan",1574112251434,"swan","banana",1,24,"TEST",1,"Graduated College",NA,"German","thirdDistractor","corn",3190,"ban","yellow","red","thirdDistractor","female",17,1574112205282,0.7692,1,"482467342226241"
"Mon Nov 18 2019 22:23:25 GMT+0100 (Central European Standard Time)","1574112359203",1,1,"yellow_banana.png","white","00d53881d444555746a8ca2e99e963dde63c8023","1|2|3|0",NA,"<strong>Director</strong>: ban","banana",1,"ttn",1574112251434,"pumpkin","lettuce",1,24,"TEST",1,"Graduated College",NA,"German","target","corn",2743,"ban","green","yellow","target","female",18,1574112205282,0.7692,1,"482467342226241"
"Mon Nov 18 2019 22:23:25 GMT+0100 (Central European Standard Time)","1574112362997",1,1,"white_egg.png","green","00d53881d444555746a8ca2e99e963dde63c8023","0|3|1|2",NA,"<strong>Director</strong>: egg","swan",1,"ttp",1574112251434,"swan","corn",1,24,"TEST",1,"Graduated College",NA,"German","firstDistractor","egg",3751,"egg","yellow","white","firstDistractor","female",19,1574112205282,0.7692,1,"482467342226241"
"Mon Nov 18 2019 22:23:25 GMT+0100 (Central European Standard Time)","1574112368204",1,1,"green_carrot.png","white","00d53881d444555746a8ca2e99e963dde63c8023","1|2|0|3",NA,"<strong>Director</strong>: carrot","egg",1,"atn",1574112251434,"tomato","carrot",1,24,"TEST",1,"Graduated College",NA,"German","thirdDistractor","banana",4131,"carrot","green","yellow","thirdDistractor","female",20,1574112205282,0.7692,1,"482467342226241"
"Mon Nov 18 2019 22:23:25 GMT+0100 (Central European Standard Time)","1574112373426|||1574112377563",1,1,"orange_lettuce.png","white","00d53881d444555746a8ca2e99e963dde63c8023","0|3|2|1",NA,"<strong>Director</strong>: lettuc3\n<strong>Director</strong>: \nlettuce","pumpkin",1,"tap",1574112251434,"pumpkin","tomato",1,24,"TEST",1,"Graduated College",NA,"German","firstDistractor","lettuce",8920,"lettuc3|||\nlettuce","red","orange","firstDistractor","female",21,1574112205282,0.7692,1,"482467342226241"
"Mon Nov 18 2019 22:23:25 GMT+0100 (Central European Standard Time)","1574112382073",1,1,"yellow_corn.png","orange","00d53881d444555746a8ca2e99e963dde63c8023","1|0|3|2",NA,"<strong>Director</strong>: corn","pumpkin",1,"atn",1574112251434,"lettuce","corn",1,24,"TEST",1,"Graduated College",NA,"German","thirdDistractor","egg",3620,"corn","yellow","white","thirdDistractor","female",22,1574112205282,0.7692,1,"482467342226241"
"Mon Nov 18 2019 22:23:25 GMT+0100 (Central European Standard Time)","1574112387127|||1574112395808",1,1,"yellow_corn.png","yellow","00d53881d444555746a8ca2e99e963dde63c8023","1|3|2|0","1574112392120","<strong>Director</strong>: corn\n<strong>Matcher</strong>: which one\n<strong>Director</strong>: yellow","corn",1,"atp",1574112251434,"corn","pumpkin",1,24,"TEST",1,"Graduated College","which one","German","secondDistractor","strawberry",13060,"corn|||yellow","white","red","secondDistractor","female",23,1574112205282,0.7692,1,"482467342226241"
"Mon Nov 18 2019 22:23:25 GMT+0100 (Central European Standard Time)","1574112402247",1,1,"yellow_egg.png","orange","00d53881d444555746a8ca2e99e963dde63c8023","2|3|1|0",NA,"<strong>Director</strong>: egg","egg",1,"atn",1574112251434,"carrot","lettuce",1,24,"TEST",1,"Graduated College",NA,"German","target","corn",5672,"egg","green","yellow","target","female",24,1574112205282,0.7692,1,"482467342226241"
"Mon Nov 18 2019 22:23:25 GMT+0100 (Central European Standard Time)","1574112407132",1,1,"red_tomato.png","orange","00d53881d444555746a8ca2e99e963dde63c8023","3|1|2|0",NA,"<strong>Director</strong>: tomato","tomato",1,"tan",1574112251434,"banana","pumpkin",1,24,"TEST",1,"Graduated College",NA,"German","target","broccoli",4253,"tomato","white","red","target","female",25,1574112205282,0.7692,1,"482467342226241"
"Mon Nov 18 2019 22:23:25 GMT+0100 (Central European Standard Time)","1574112414886",1,1,"orange_lettuce.png","green","00d53881d444555746a8ca2e99e963dde63c8023","3|2|0|1",NA,"<strong>Director</strong>: lettuce orange","lettuce",1,"atp",1574112251434,"lettuce","corn",1,24,"TEST",1,"Graduated College",NA,"German","target","pumpkin",7116,"lettuce orange","red","orange","target","female",26,1574112205282,0.7692,1,"482467342226241"
"Mon Nov 18 2019 22:23:25 GMT+0100 (Central European Standard Time)","1574112419588",1,1,"red_broccoli.png","red","00d53881d444555746a8ca2e99e963dde63c8023","0|1|3|2",NA,"<strong>Director</strong>: brocc","broccoli",1,"tap",1574112251434,"broccoli","swan",1,24,"TEST",1,"Graduated College",NA,"German","secondDistractor","carrot",4416,"brocc","white","green","secondDistractor","female",27,1574112205282,0.7692,1,"482467342226241"
"Mon Nov 18 2019 22:23:25 GMT+0100 (Central European Standard Time)","1574112423966",1,1,"yellow_corn.png","green","00d53881d444555746a8ca2e99e963dde63c8023","3|2|0|1",NA,"<strong>Director</strong>: corn","tomato",1,"ttn",1574112251434,"broccoli","corn",1,24,"TEST",1,"Graduated College",NA,"German","thirdDistractor","strawberry",3253,"corn","yellow","red","thirdDistractor","female",28,1574112205282,0.7692,1,"482467342226241"
"Mon Nov 18 2019 22:23:25 GMT+0100 (Central European Standard Time)","1574112428620",1,1,"orange_banana.png","orange","00d53881d444555746a8ca2e99e963dde63c8023","0|3|1|2",NA,"<strong>Director</strong>: or ban","banana",1,"tap",1574112251434,"banana","swan",1,24,"TEST",1,"Graduated College",NA,"German","secondDistractor","egg",4013,"or ban","white","yellow","secondDistractor","female",29,1574112205282,0.7692,1,"482467342226241"
"Mon Nov 18 2019 22:23:25 GMT+0100 (Central European Standard Time)","1574112434265",1,1,"orange_pumpkin.png","orange","00d53881d444555746a8ca2e99e963dde63c8023","3|0|1|2",NA,"<strong>Director</strong>: or pumpkin","pumpkin",1,"atp",1574112251434,"pumpkin","banana",1,24,"TEST",1,"Graduated College",NA,"German","secondDistractor","egg",5259,"or pumpkin","yellow","white","secondDistractor","female",30,1574112205282,0.7692,1,"482467342226241"
"Mon Nov 18 2019 22:23:25 GMT+0100 (Central European Standard Time)","1574112439736",1,1,"yellow_corn.png","green","00d53881d444555746a8ca2e99e963dde63c8023","1|0|3|2",NA,"<strong>Director</strong>: yel corn","egg",1,"tan",1574112251434,"broccoli","corn",1,24,"TEST",1,"Graduated College",NA,"German","thirdDistractor","tomato",4549,"yel corn","yellow","white","thirdDistractor","female",31,1574112205282,0.7692,1,"482467342226241"
"Mon Nov 18 2019 22:23:25 GMT+0100 (Central European Standard Time)","1574112444508",1,1,"red_broccoli.png","green","00d53881d444555746a8ca2e99e963dde63c8023","1|2|0|3",NA,"<strong>Director</strong>: red brocc","broccoli",1,"aan",1574112251434,"lettuce","banana",1,24,"TEST",1,"Graduated College",NA,"German","target","corn",4300,"red brocc","orange","red","target","female",32,1574112205282,0.7692,1,"482467342226241"
"Mon Nov 18 2019 22:23:25 GMT+0100 (Central European Standard Time)","1574112451517",1,1,"red_strawberry.png","yellow","00d53881d444555746a8ca2e99e963dde63c8023","0|1|3|2",NA,"<strong>Director</strong>: red strawb","strawberry",1,"tap",1574112251434,"strawberry","carrot",1,24,"TEST",1,"Graduated College",NA,"German","target","corn",6467,"red strawb","orange","red","target","female",33,1574112205282,0.7692,1,"482467342226241"
"Mon Nov 18 2019 22:23:25 GMT+0100 (Central European Standard Time)","1574112457515",1,1,"red_tomato.png","white","00d53881d444555746a8ca2e99e963dde63c8023","0|3|2|1",NA,"<strong>Director</strong>: red tomato","tomato",1,"ttp",1574112251434,"tomato","corn",1,24,"TEST",1,"Graduated College",NA,"German","target","strawberry",5565,"red tomato","yellow","red","target","female",34,1574112205282,0.7692,1,"482467342226241"
"Mon Nov 18 2019 22:23:25 GMT+0100 (Central European Standard Time)","1574112464384",1,1,"green_carrot.png","orange","00d53881d444555746a8ca2e99e963dde63c8023","2|3|0|1",NA,"<strong>Director</strong>: green carrot","carrot",1,"aap",1574112251434,"carrot","tomato",1,24,"TEST",1,"Graduated College",NA,"German","target","swan",5964,"green carrot","white","green","target","female",35,1574112205282,0.7692,1,"482467342226241"
"Mon Nov 18 2019 22:23:25 GMT+0100 (Central European Standard Time)","1574112470751",1,1,"green_lettuce.png","yellow","00d53881d444555746a8ca2e99e963dde63c8023","3|2|1|0",NA,"<strong>Director</strong>: lettuce","lettuce",1,"tan",1574112251434,"strawberry","tomato",1,24,"TEST",1,"Graduated College",NA,"German","target","swan",5470,"lettuce","red","green","target","female",36,1574112205282,0.7692,1,"482467342226241"
"Mon Nov 18 2019 22:23:25 GMT+0100 (Central European Standard Time)","1574112475536",1,1,"orange_lettuce.png","white","00d53881d444555746a8ca2e99e963dde63c8023","0|3|2|1",NA,"<strong>Director</strong>: lett","lettuce",1,"atn",1574112251434,"pumpkin","broccoli",1,24,"TEST",1,"Graduated College",NA,"German","target","carrot",4137,"lett","green","orange","target","female",37,1574112205282,0.7692,1,"482467342226241"
"Mon Nov 18 2019 22:23:25 GMT+0100 (Central European Standard Time)","1574112480302",1,1,"white_swan.png","green","00d53881d444555746a8ca2e99e963dde63c8023","3|2|1|0",NA,"<strong>Director</strong>: swan","banana",1,"atn",1574112251434,"broccoli","swan",1,24,"TEST",1,"Graduated College",NA,"German","thirdDistractor","pumpkin",4104,"swan","white","orange","thirdDistractor","female",38,1574112205282,0.7692,1,"482467342226241"
"Mon Nov 18 2019 22:23:25 GMT+0100 (Central European Standard Time)","1574112483950",1,1,"yellow_egg.png","white","00d53881d444555746a8ca2e99e963dde63c8023","0|2|1|3",NA,"<strong>Director</strong>: egg","strawberry",1,"tan",1574112251434,"pumpkin","egg",1,24,"TEST",1,"Graduated College",NA,"German","thirdDistractor","broccoli",3372,"egg","yellow","red","thirdDistractor","female",39,1574112205282,0.7692,1,"482467342226241"
"Mon Nov 18 2019 22:23:25 GMT+0100 (Central European Standard Time)","1574112491632",1,1,"red_corn.png","white","00d53881d444555746a8ca2e99e963dde63c8023","3|2|0|1",NA,"<strong>Director</strong>: corn","pumpkin",1,"tap",1574112251434,"pumpkin","corn",1,24,"TEST",1,"Graduated College",NA,"German","thirdDistractor","banana",6953,"corn","red","orange","thirdDistractor","female",40,1574112205282,0.7692,1,"482467342226241"
"Mon Nov 18 2019 22:23:25 GMT+0100 (Central European Standard Time)","1574112497184",1,1,"orange_lettuce.png","orange","00d53881d444555746a8ca2e99e963dde63c8023","3|0|1|2",NA,"<strong>Director</strong>: orange lett","lettuce",1,"tap",1574112251434,"lettuce","pumpkin",1,24,"TEST",1,"Graduated College",NA,"German","secondDistractor","swan",4673,"orange lett","white","green","secondDistractor","female",41,1574112205282,0.7692,1,"482467342226241"
"Mon Nov 18 2019 22:23:25 GMT+0100 (Central European Standard Time)","1574112503286",1,1,"white_tomato.png","red","00d53881d444555746a8ca2e99e963dde63c8023","3|2|0|1",NA,"<strong>Director</strong>: white tomato","tomato",1,"aap",1574112251434,"tomato","lettuce",1,24,"TEST",1,"Graduated College",NA,"German","target","pumpkin",5652,"white tomato","orange","white","target","female",42,1574112205282,0.7692,1,"482467342226241"
"Mon Nov 18 2019 22:23:25 GMT+0100 (Central European Standard Time)","1574112507860",1,1,"white_tomato.png","green","00d53881d444555746a8ca2e99e963dde63c8023","2|1|3|0",NA,"<strong>Director</strong>: tomato","carrot",1,"ttp",1574112251434,"carrot","tomato",1,24,"TEST",1,"Graduated College",NA,"German","thirdDistractor","pumpkin",4003,"tomato","white","orange","thirdDistractor","female",43,1574112205282,0.7692,1,"482467342226241"
"Mon Nov 18 2019 22:23:25 GMT+0100 (Central European Standard Time)","1574112512445",1,1,"red_corn.png","white","00d53881d444555746a8ca2e99e963dde63c8023","2|1|3|0",NA,"<strong>Director</strong>: corn","carrot",1,"tan",1574112251434,"swan","corn",1,24,"TEST",1,"Graduated College",NA,"German","thirdDistractor","banana",3836,"corn","red","orange","thirdDistractor","female",44,1574112205282,0.7692,1,"482467342226241"
"Mon Nov 18 2019 22:23:25 GMT+0100 (Central European Standard Time)","1574112517412",1,1,"orange_banana.png","green","00d53881d444555746a8ca2e99e963dde63c8023","0|1|3|2",NA,"<strong>Director</strong>: or ban","lettuce",1,"aap",1574112251434,"lettuce","pumpkin",1,24,"TEST",1,"Graduated College",NA,"German","firstDistractor","banana",4440,"or ban","white","orange","firstDistractor","female",45,1574112205282,0.7692,1,"482467342226241"
"Mon Nov 18 2019 22:23:25 GMT+0100 (Central European Standard Time)","1574112523391",1,1,"orange_carrot.png","yellow","00d53881d444555746a8ca2e99e963dde63c8023","0|1|2|3",NA,"<strong>Director</strong>: or carrot","banana",1,"atp",1574112251434,"banana","broccoli",1,24,"TEST",1,"Graduated College",NA,"German","firstDistractor","carrot",4736,"or carrot","green","orange","firstDistractor","female",46,1574112205282,0.7692,1,"482467342226241"
"Mon Nov 18 2019 22:23:25 GMT+0100 (Central European Standard Time)","1574112530722",1,1,"yellow_strawberry.png","green","00d53881d444555746a8ca2e99e963dde63c8023","0|2|1|3",NA,"<strong>Director</strong>: yel strawb","egg",1,"tan",1574112251434,"lettuce","strawberry",1,24,"TEST",1,"Graduated College",NA,"German","thirdDistractor","pumpkin",7022,"yel strawb","yellow","white","thirdDistractor","female",47,1574112205282,0.7692,1,"482467342226241"
"Mon Nov 18 2019 22:23:25 GMT+0100 (Central European Standard Time)","1574112538256",1,1,"green_lettuce.png","white","00d53881d444555746a8ca2e99e963dde63c8023","3|0|2|1",NA,"<strong>Director</strong>: green lettuce","swan",1,"atp",1574112251434,"swan","banana",1,24,"TEST",1,"Graduated College",NA,"German","firstDistractor","lettuce",6769,"green lettuce","orange","green","firstDistractor","female",48,1574112205282,0.7692,1,"482467342226241"
"Mon Nov 18 2019 22:23:25 GMT+0100 (Central European Standard Time)","1574112543466",1,1,"white_swan.png","yellow","00d53881d444555746a8ca2e99e963dde63c8023","1|0|2|3",NA,"<strong>Director</strong>: white swan","swan",1,"tan",1574112251434,"strawberry","pumpkin",1,24,"TEST",1,"Graduated College",NA,"German","target","tomato",4528,"white swan","orange","white","target","female",49,1574112205282,0.7692,1,"482467342226241"
"Mon Nov 18 2019 22:23:25 GMT+0100 (Central European Standard Time)","1574112548656",1,1,"orange_carrot.png","white","00d53881d444555746a8ca2e99e963dde63c8023","0|3|1|2",NA,"<strong>Director</strong>: carrot","pumpkin",1,"ttp",1574112251434,"pumpkin","banana",1,24,"TEST",1,"Graduated College",NA,"German","firstDistractor","carrot",4625,"carrot","yellow","orange","firstDistractor","female",50,1574112205282,0.7692,1,"482467342226241"
"Mon Nov 18 2019 22:23:25 GMT+0100 (Central European Standard Time)","1574112553981",1,1,"red_strawberry.png","yellow","00d53881d444555746a8ca2e99e963dde63c8023","0|2|1|3",NA,"<strong>Director</strong>: strawb","banana",1,"atn",1574112251434,"egg","strawberry",1,24,"TEST",1,"Graduated College",NA,"German","thirdDistractor","carrot",4523,"strawb","red","orange","thirdDistractor","female",51,1574112205282,0.7692,1,"482467342226241"
"Mon Nov 18 2019 22:23:25 GMT+0100 (Central European Standard Time)","1574112558274",1,1,"orange_banana.png","green","00d53881d444555746a8ca2e99e963dde63c8023","2|0|3|1",NA,"<strong>Director</strong>: ban","tomato",1,"atn",1574112251434,"lettuce","banana",1,24,"TEST",1,"Graduated College",NA,"German","thirdDistractor","swan",3888,"ban","orange","white","thirdDistractor","female",52,1574112205282,0.7692,1,"482467342226241"
"Mon Nov 18 2019 22:23:25 GMT+0100 (Central European Standard Time)","1574112564030",1,1,"green_carrot.png","orange","00d53881d444555746a8ca2e99e963dde63c8023","2|3|0|1",NA,"<strong>Director</strong>: green carrot","carrot",1,"atp",1574112251434,"carrot","banana",1,24,"TEST",1,"Graduated College",NA,"German","target","broccoli",5050,"green carrot","yellow","green","target","female",53,1574112205282,0.7692,1,"482467342226241"
"Mon Nov 18 2019 22:23:25 GMT+0100 (Central European Standard Time)","1574112569432",1,1,"white_egg.png","yellow","00d53881d444555746a8ca2e99e963dde63c8023","0|1|3|2",NA,"<strong>Director</strong>: white egg","egg",1,"ttn",1574112251434,"corn","lettuce",1,24,"TEST",1,"Graduated College",NA,"German","target","swan",6102,"white egg","orange","white","target","female",54,1574112205282,0.7692,1,"482467342226241"
"Mon Nov 18 2019 22:23:25 GMT+0100 (Central European Standard Time)","1574112578293",1,1,"yellow_strawberry.png","orange","00d53881d444555746a8ca2e99e963dde63c8023","3|2|0|1",NA,"<strong>Director</strong>: strawb","carrot",1,"atn",1574112251434,"lettuce","strawberry",1,24,"TEST",1,"Graduated College",NA,"German","thirdDistractor","broccoli",6900,"strawb","yellow","green","thirdDistractor","female",55,1574112205282,0.7692,1,"482467342226241"
"Mon Nov 18 2019 22:23:25 GMT+0100 (Central European Standard Time)","1574112582720",1,1,"yellow_corn.png","white","00d53881d444555746a8ca2e99e963dde63c8023","0|3|1|2",NA,"<strong>Director</strong>: corn","corn",1,"tan",1574112251434,"tomato","strawberry",1,24,"TEST",1,"Graduated College",NA,"German","target","egg",3860,"corn","red","yellow","target","female",56,1574112205282,0.7692,1,"482467342226241"
"Mon Nov 18 2019 22:23:25 GMT+0100 (Central European Standard Time)","1574112587561",1,1,"white_tomato.png","red","00d53881d444555746a8ca2e99e963dde63c8023","3|1|2|0",NA,"<strong>Director</strong>: tom","banana",1,"tan",1574112251434,"broccoli","tomato",1,24,"TEST",1,"Graduated College",NA,"German","thirdDistractor","egg",3829,"tom","white","yellow","thirdDistractor","female",57,1574112205282,0.7692,1,"482467342226241"
"Mon Nov 18 2019 22:23:25 GMT+0100 (Central European Standard Time)","1574112591381|||1574112599012",1,1,"white_egg.png","white","00d53881d444555746a8ca2e99e963dde63c8023","0|1|2|3","1574112597766","<strong>Director</strong>: egg\n<strong>Matcher</strong>: white?\n<strong>Director</strong>: \nwhite","egg",1,"atp",1574112251434,"egg","broccoli",1,24,"TEST",1,"Graduated College","white?","German","secondDistractor","corn",11595,"egg|||\nwhite","red","yellow","secondDistractor","female",58,1574112205282,0.7692,1,"482467342226241"
"Mon Nov 18 2019 22:23:25 GMT+0100 (Central European Standard Time)","1574112605287",1,1,"orange_lettuce.png","yellow","00d53881d444555746a8ca2e99e963dde63c8023","2|3|1|0",NA,"<strong>Director</strong>: lettuce","banana",1,"aap",1574112251434,"banana","swan",1,24,"TEST",1,"Graduated College",NA,"German","firstDistractor","lettuce",5283,"lettuce","green","orange","firstDistractor","female",59,1574112205282,0.7692,1,"482467342226241"
"Mon Nov 18 2019 22:23:25 GMT+0100 (Central European Standard Time)","1574112610277",1,1,"red_tomato.png","white","00d53881d444555746a8ca2e99e963dde63c8023","1|3|0|2",NA,"<strong>Director</strong>: tom","tomato",1,"tap",1574112251434,"tomato","lettuce",1,24,"TEST",1,"Graduated College",NA,"German","target","broccoli",4169,"tom","green","red","target","female",60,1574112205282,0.7692,1,"482467342226241"
"Mon Nov 18 2019 17:04:31 GMT-0600 (Central Standard Time)","1574118380842",1,1,"white_tomato.png","orange","d6b108c6606a3fa88adaf603b92f499f3303907e","2|0|1|3",NA,"<strong>Director</strong>: It is the smaller white object","pumpkin",2,"aap",1574118289941,"pumpkin","strawberry",1,32,NA,1,"Graduated College",NA,"English","firstDistractor","tomato",16496,"It is the smaller white object","yellow","white","firstDistractor","male",1,1574118271172,0.312816666666667,2,"772581272006273"
"Mon Nov 18 2019 17:04:31 GMT-0600 (Central Standard Time)","1574118392444",1,1,"red_tomato.png","white","d6b108c6606a3fa88adaf603b92f499f3303907e","2|1|3|0",NA,"<strong>Director</strong>: It is the red object","swan",2,"aap",1574118289941,"swan","tomato",1,32,NA,1,"Graduated College",NA,"English","thirdDistractor","carrot",10499,"It is the red object","red","green","thirdDistractor","male",2,1574118271172,0.312816666666667,2,"772581272006273"
"Mon Nov 18 2019 17:04:31 GMT-0600 (Central Standard Time)","1574118403027",1,1,"white_egg.png","white","d6b108c6606a3fa88adaf603b92f499f3303907e","0|1|3|2",NA,"<strong>Director</strong>: It is the white object","egg",2,"atp",1574118289941,"egg","strawberry",1,32,NA,1,"Graduated College",NA,"English","secondDistractor","banana",9003,"It is the white object","red","yellow","secondDistractor","male",3,1574118271172,0.312816666666667,2,"772581272006273"
"Mon Nov 18 2019 17:04:31 GMT-0600 (Central Standard Time)","1574118414450",1,1,"yellow_egg.png","white","d6b108c6606a3fa88adaf603b92f499f3303907e","3|0|2|1",NA,"<strong>Director</strong>: It is the yellow object","pumpkin",2,"tap",1574118289941,"pumpkin","egg",1,32,NA,1,"Graduated College",NA,"English","thirdDistractor","lettuce",10898,"It is the yellow object","yellow","orange","thirdDistractor","male",4,1574118271172,0.312816666666667,2,"772581272006273"
"Mon Nov 18 2019 17:04:31 GMT-0600 (Central Standard Time)","1574118424954",1,1,"white_tomato.png","green","d6b108c6606a3fa88adaf603b92f499f3303907e","3|0|1|2",NA,"<strong>Director</strong>: It is the white object","lettuce",2,"atn",1574118289941,"swan","tomato",1,32,NA,1,"Graduated College",NA,"English","thirdDistractor","carrot",9832,"It is the white object","white","orange","thirdDistractor","male",5,1574118271172,0.312816666666667,2,"772581272006273"
"Mon Nov 18 2019 17:04:31 GMT-0600 (Central Standard Time)","1574118433910",1,1,"yellow_banana.png","green","d6b108c6606a3fa88adaf603b92f499f3303907e","3|2|1|0",NA,"<strong>Director</strong>: It is the yellow object","swan",2,"tap",1574118289941,"swan","banana",1,32,NA,1,"Graduated College",NA,"English","thirdDistractor","tomato",8825,"It is the yellow object","yellow","white","thirdDistractor","male",6,1574118271172,0.312816666666667,2,"772581272006273"
"Mon Nov 18 2019 17:04:31 GMT-0600 (Central Standard Time)","1574118445060",1,1,"white_pumpkin.png","green","d6b108c6606a3fa88adaf603b92f499f3303907e","3|2|0|1",NA,"<strong>Director</strong>: It is a round white object","pumpkin",2,"atn",1574118289941,"carrot","lettuce",1,32,NA,1,"Graduated College",NA,"English","target","swan",10709,"It is a round white object","orange","white","target","male",7,1574118271172,0.312816666666667,2,"772581272006273"
"Mon Nov 18 2019 17:04:31 GMT-0600 (Central Standard Time)","1574118455490",1,1,"orange_banana.png","red","d6b108c6606a3fa88adaf603b92f499f3303907e","3|2|0|1",NA,"<strong>Director</strong>: It is a dark orange object","egg",2,"atn",1574118289941,"strawberry","banana",1,32,NA,1,"Graduated College",NA,"English","thirdDistractor","corn",10153,"It is a dark orange object","orange","yellow","thirdDistractor","male",8,1574118271172,0.312816666666667,2,"772581272006273"
"Mon Nov 18 2019 17:04:31 GMT-0600 (Central Standard Time)","1574118469235",1,1,"white_egg.png","green","d6b108c6606a3fa88adaf603b92f499f3303907e","2|3|1|0",NA,"<strong>Director</strong>: It is the smaller white object","egg",2,"tan",1574118289941,"broccoli","corn",1,32,NA,1,"Graduated College",NA,"English","target","pumpkin",12525,"It is the smaller white object","yellow","white","target","male",9,1574118271172,0.312816666666667,2,"772581272006273"
"Mon Nov 18 2019 17:04:31 GMT-0600 (Central Standard Time)","1574118479038",1,1,"yellow_banana.png","green","d6b108c6606a3fa88adaf603b92f499f3303907e","1|0|3|2",NA,"<strong>Director</strong>: It is the long yellow object","banana",2,"tan",1574118289941,"carrot","broccoli",1,32,NA,1,"Graduated College",NA,"English","target","strawberry",9543,"It is the long yellow object","red","yellow","target","male",10,1574118271172,0.312816666666667,2,"772581272006273"
"Mon Nov 18 2019 17:04:31 GMT-0600 (Central Standard Time)","1574118488634",1,1,"white_tomato.png","yellow","d6b108c6606a3fa88adaf603b92f499f3303907e","0|1|3|2",NA,"<strong>Director</strong>: It is the white object.","pumpkin",2,"tan",1574118289941,"banana","tomato",1,32,NA,1,"Graduated College",NA,"English","thirdDistractor","lettuce",8939,"It is the white object.","white","orange","thirdDistractor","male",11,1574118271172,0.312816666666667,2,"772581272006273"
"Mon Nov 18 2019 17:04:31 GMT-0600 (Central Standard Time)","1574118500454",1,1,"yellow_egg.png","orange","d6b108c6606a3fa88adaf603b92f499f3303907e","1|2|0|3",NA,"<strong>Director</strong>: It is a bright yellow object.","egg",2,"aan",1574118289941,"lettuce","broccoli",1,32,NA,1,"Graduated College",NA,"English","target","strawberry",13068,"It is a bright yellow object.","red","yellow","target","male",12,1574118271172,0.312816666666667,2,"772581272006273"
"Mon Nov 18 2019 17:04:31 GMT-0600 (Central Standard Time)","1574118513541",1,1,"orange_pumpkin.png","yellow","d6b108c6606a3fa88adaf603b92f499f3303907e","0|3|2|1",NA,"<strong>Director</strong>: It is a round orange object","pumpkin",2,"ttn",1574118289941,"egg","broccoli",1,32,NA,1,"Graduated College",NA,"English","target","carrot",11177,"It is a round orange object","green","orange","target","male",13,1574118271172,0.312816666666667,2,"772581272006273"
"Mon Nov 18 2019 17:04:31 GMT-0600 (Central Standard Time)","1574118523298",1,1,"red_strawberry.png","orange","d6b108c6606a3fa88adaf603b92f499f3303907e","0|3|1|2",NA,"<strong>Director</strong>: It is a red object","banana",2,"tap",1574118289941,"banana","strawberry",1,32,NA,1,"Graduated College",NA,"English","thirdDistractor","egg",8383,"It is a red object","red","yellow","thirdDistractor","male",14,1574118271172,0.312816666666667,2,"772581272006273"
"Mon Nov 18 2019 17:04:31 GMT-0600 (Central Standard Time)","1574118532324",1,1,"yellow_corn.png","green","d6b108c6606a3fa88adaf603b92f499f3303907e","2|3|0|1",NA,"<strong>Director</strong>: It is the corn","corn",2,"ttn",1574118289941,"lettuce","broccoli",1,32,NA,1,"Graduated College",NA,"English","target","banana",8814,"It is the corn","red","yellow","target","male",15,1574118271172,0.312816666666667,2,"772581272006273"
"Mon Nov 18 2019 17:04:31 GMT-0600 (Central Standard Time)","1574118545768",1,1,"yellow_egg.png","white","d6b108c6606a3fa88adaf603b92f499f3303907e","3|1|2|0",NA,"<strong>Director</strong>: It is the yellow egg","egg",2,"aap",1574118289941,"egg","swan",1,32,NA,1,"Graduated College",NA,"English","target","strawberry",13260,"It is the yellow egg","green","yellow","target","male",16,1574118271172,0.312816666666667,2,"772581272006273"
"Mon Nov 18 2019 17:04:31 GMT-0600 (Central Standard Time)","1574118553854",1,1,"white_egg.png","yellow","d6b108c6606a3fa88adaf603b92f499f3303907e","3|2|0|1",NA,"<strong>Director</strong>: It is the white egg","corn",2,"atn",1574118289941,"banana","egg",1,32,NA,1,"Graduated College",NA,"English","thirdDistractor","tomato",6714,"It is the white egg","white","red","thirdDistractor","male",17,1574118271172,0.312816666666667,2,"772581272006273"
"Mon Nov 18 2019 17:04:31 GMT-0600 (Central Standard Time)","1574118566118",1,1,"green_broccoli.png","red","d6b108c6606a3fa88adaf603b92f499f3303907e","1|3|2|0",NA,"<strong>Director</strong>: It is the green vegetable","tomato",2,"atp",1574118289941,"tomato","broccoli",1,32,NA,1,"Graduated College",NA,"English","thirdDistractor","swan",11573,"It is the green vegetable","green","white","thirdDistractor","male",18,1574118271172,0.312816666666667,2,"772581272006273"
"Mon Nov 18 2019 17:04:31 GMT-0600 (Central Standard Time)","1574118574724",1,1,"red_strawberry.png","orange","d6b108c6606a3fa88adaf603b92f499f3303907e","3|2|0|1",NA,"<strong>Director</strong>: It is the strawberry","strawberry",2,"ttn",1574118289941,"pumpkin","egg",1,32,NA,1,"Graduated College",NA,"English","target","tomato",8733,"It is the strawberry","white","red","target","male",19,1574118271172,0.312816666666667,2,"772581272006273"
"Mon Nov 18 2019 17:04:31 GMT-0600 (Central Standard Time)","1574118582994",1,1,"white_swan.png","orange","d6b108c6606a3fa88adaf603b92f499f3303907e","2|0|1|3",NA,"<strong>Director</strong>: It is the goose","pumpkin",2,"atp",1574118289941,"pumpkin","egg",1,32,NA,1,"Graduated College",NA,"English","firstDistractor","swan",7427,"It is the goose","yellow","white","firstDistractor","male",20,1574118271172,0.312816666666667,2,"772581272006273"
"Mon Nov 18 2019 17:04:31 GMT-0600 (Central Standard Time)","1574118593703",1,1,"orange_banana.png","green","d6b108c6606a3fa88adaf603b92f499f3303907e","0|2|1|3",NA,"<strong>Director</strong>: It is the orange banana","lettuce",2,"aap",1574118289941,"lettuce","broccoli",1,32,NA,1,"Graduated College",NA,"English","firstDistractor","banana",9835,"It is the orange banana","red","orange","firstDistractor","male",21,1574118271172,0.312816666666667,2,"772581272006273"
"Mon Nov 18 2019 17:04:31 GMT-0600 (Central Standard Time)","1574118601971",1,1,"yellow_egg.png","yellow","d6b108c6606a3fa88adaf603b92f499f3303907e","1|2|0|3",NA,"<strong>Director</strong>: It is the yellow egg","egg",2,"tap",1574118289941,"egg","corn",1,32,NA,1,"Graduated College",NA,"English","secondDistractor","pumpkin",8538,"It is the yellow egg","red","white","secondDistractor","male",22,1574118271172,0.312816666666667,2,"772581272006273"
"Mon Nov 18 2019 17:04:31 GMT-0600 (Central Standard Time)","1574118611627",1,1,"green_swan.png","red","d6b108c6606a3fa88adaf603b92f499f3303907e","3|0|2|1",NA,"<strong>Director</strong>: It is the green bird","swan",2,"aan",1574118289941,"tomato","banana",1,32,NA,1,"Graduated College",NA,"English","target","carrot",8663,"It is the green bird","yellow","green","target","male",23,1574118271172,0.312816666666667,2,"772581272006273"
"Mon Nov 18 2019 17:04:31 GMT-0600 (Central Standard Time)","1574118623086",1,1,"orange_lettuce.png","red","d6b108c6606a3fa88adaf603b92f499f3303907e","3|1|0|2",NA,"<strong>Director</strong>: It is the orange cabbage","lettuce",2,"atn",1574118289941,"corn","tomato",1,32,NA,1,"Graduated College",NA,"English","target","pumpkin",11235,"It is the orange cabbage","white","orange","target","male",24,1574118271172,0.312816666666667,2,"772581272006273"
"Mon Nov 18 2019 17:04:31 GMT-0600 (Central Standard Time)","1574118633049",1,1,"white_pumpkin.png","red","d6b108c6606a3fa88adaf603b92f499f3303907e","1|2|0|3",NA,"<strong>Director</strong>: It is the larger white object","pumpkin",2,"aan",1574118289941,"broccoli","banana",1,32,NA,1,"Graduated College",NA,"English","target","tomato",8921,"It is the larger white object","orange","white","target","male",25,1574118271172,0.312816666666667,2,"772581272006273"
"Mon Nov 18 2019 17:04:31 GMT-0600 (Central Standard Time)","1574118642274",1,1,"red_tomato.png","yellow","d6b108c6606a3fa88adaf603b92f499f3303907e","3|0|1|2",NA,"<strong>Director</strong>: It is the larger red object","tomato",2,"ttn",1574118289941,"corn","pumpkin",1,32,NA,1,"Graduated College",NA,"English","target","strawberry",9741,"It is the larger red object","white","red","target","male",26,1574118271172,0.312816666666667,2,"772581272006273"
"Mon Nov 18 2019 17:04:31 GMT-0600 (Central Standard Time)","1574118651872",1,1,"orange_pumpkin.png","white","d6b108c6606a3fa88adaf603b92f499f3303907e","2|3|0|1",NA,"<strong>Director</strong>: It is the yellow object","banana",2,"atn",1574118289941,"egg","corn",1,32,NA,1,"Graduated College",NA,"English","firstDistractor","pumpkin",11526,"It is the yellow object","yellow","orange","thirdDistractor","male",27,1574118271172,0.312816666666667,2,"772581272006273"
"Mon Nov 18 2019 17:04:31 GMT-0600 (Central Standard Time)","1574118663718",1,1,"white_tomato.png","green","d6b108c6606a3fa88adaf603b92f499f3303907e","0|3|2|1",NA,"<strong>Director</strong>: It is the white object","banana",2,"tan",1574118289941,"carrot","tomato",1,32,NA,1,"Graduated College",NA,"English","thirdDistractor","egg",7702,"It is the white object","white","yellow","thirdDistractor","male",28,1574118271172,0.312816666666667,2,"772581272006273"
"Mon Nov 18 2019 17:04:31 GMT-0600 (Central Standard Time)","1574118671492",1,1,"green_lettuce.png","red","d6b108c6606a3fa88adaf603b92f499f3303907e","3|1|2|0",NA,"<strong>Director</strong>: It is the cabbage","lettuce",2,"tan",1574118289941,"broccoli","strawberry",1,32,NA,1,"Graduated College",NA,"English","target","carrot",7304,"It is the cabbage","yellow","green","target","male",29,1574118271172,0.312816666666667,2,"772581272006273"
"Mon Nov 18 2019 17:04:31 GMT-0600 (Central Standard Time)","1574118680494",1,1,"green_swan.png","orange","d6b108c6606a3fa88adaf603b92f499f3303907e","2|0|3|1",NA,"<strong>Director</strong>: It is the green bird","lettuce",2,"tap",1574118289941,"lettuce","broccoli",1,32,NA,1,"Graduated College",NA,"English","firstDistractor","swan",8194,"It is the green bird","red","green","firstDistractor","male",30,1574118271172,0.312816666666667,2,"772581272006273"
"Mon Nov 18 2019 17:04:31 GMT-0600 (Central Standard Time)","1574118686734",1,1,"white_tomato.png","white","d6b108c6606a3fa88adaf603b92f499f3303907e","2|0|1|3",NA,"<strong>Director</strong>: white object","tomato",2,"tap",1574118289941,"tomato","egg",1,32,NA,1,"Graduated College",NA,"English","secondDistractor","corn",5577,"white object","yellow","red","secondDistractor","male",31,1574118271172,0.312816666666667,2,"772581272006273"
"Mon Nov 18 2019 17:04:31 GMT-0600 (Central Standard Time)","1574118692710",1,1,"green_lettuce.png","orange","d6b108c6606a3fa88adaf603b92f499f3303907e","1|0|3|2",NA,"<strong>Director</strong>: cabbage","lettuce",2,"ttp",1574118289941,"lettuce","egg",1,32,NA,1,"Graduated College",NA,"English","target","broccoli",6183,"cabbage","yellow","green","target","male",32,1574118271172,0.312816666666667,2,"772581272006273"
"Mon Nov 18 2019 17:04:31 GMT-0600 (Central Standard Time)","1574118700468",1,1,"yellow_egg.png","yellow","d6b108c6606a3fa88adaf603b92f499f3303907e","2|0|1|3",NA,"<strong>Director</strong>: yellow egg","egg",2,"tap",1574118289941,"egg","carrot",1,32,NA,1,"Graduated College",NA,"English","secondDistractor","tomato",6566,"yellow egg","orange","white","secondDistractor","male",33,1574118271172,0.312816666666667,2,"772581272006273"
"Mon Nov 18 2019 17:04:31 GMT-0600 (Central Standard Time)","1574118708322",1,1,"red_broccoli.png","green","d6b108c6606a3fa88adaf603b92f499f3303907e","0|1|3|2",NA,"<strong>Director</strong>: red brocoli","broccoli",2,"aap",1574118289941,"broccoli","banana",1,32,NA,1,"Graduated College",NA,"English","target","corn",7956,"red brocoli","yellow","red","target","male",34,1574118271172,0.312816666666667,2,"772581272006273"
"Mon Nov 18 2019 17:04:31 GMT-0600 (Central Standard Time)","1574118716052",1,1,"green_carrot.png","orange","d6b108c6606a3fa88adaf603b92f499f3303907e","0|1|3|2",NA,"<strong>Director</strong>: green carrot","lettuce",2,"tap",1574118289941,"lettuce","corn",1,32,NA,1,"Graduated College",NA,"English","firstDistractor","carrot",6990,"green carrot","yellow","green","firstDistractor","male",35,1574118271172,0.312816666666667,2,"772581272006273"
"Mon Nov 18 2019 17:04:31 GMT-0600 (Central Standard Time)","1574118724382",1,1,"yellow_corn.png","red","d6b108c6606a3fa88adaf603b92f499f3303907e","3|2|1|0",NA,"<strong>Director</strong>: yellow corn","corn",2,"tap",1574118289941,"corn","carrot",1,32,NA,1,"Graduated College",NA,"English","target","strawberry",7496,"yellow corn","orange","yellow","target","male",36,1574118271172,0.312816666666667,2,"772581272006273"
"Mon Nov 18 2019 17:04:31 GMT-0600 (Central Standard Time)","1574118732461",1,1,"white_swan.png","green","d6b108c6606a3fa88adaf603b92f499f3303907e","0|2|3|1",NA,"<strong>Director</strong>: white bird","swan",2,"ttp",1574118289941,"swan","lettuce",1,32,NA,1,"Graduated College",NA,"English","target","egg",10363,"white bird","orange","white","target","male",37,1574118271172,0.312816666666667,2,"772581272006273"
"Mon Nov 18 2019 17:04:31 GMT-0600 (Central Standard Time)","1574118742470",1,1,"green_carrot.png","yellow","d6b108c6606a3fa88adaf603b92f499f3303907e","2|1|3|0",NA,"<strong>Director</strong>: green carrot","broccoli",2,"atn",1574118289941,"corn","carrot",1,32,NA,1,"Graduated College",NA,"English","thirdDistractor","strawberry",6584,"green carrot","green","red","thirdDistractor","male",38,1574118271172,0.312816666666667,2,"772581272006273"
"Mon Nov 18 2019 17:04:31 GMT-0600 (Central Standard Time)","1574118749850",1,1,"yellow_strawberry.png","red","d6b108c6606a3fa88adaf603b92f499f3303907e","2|1|0|3",NA,"<strong>Director</strong>: yellow strawberry","pumpkin",2,"atn",1574118289941,"corn","strawberry",1,32,NA,1,"Graduated College",NA,"English","thirdDistractor","egg",7430,"yellow strawberry","yellow","white","thirdDistractor","male",39,1574118271172,0.312816666666667,2,"772581272006273"
"Mon Nov 18 2019 17:04:31 GMT-0600 (Central Standard Time)","1574118757990",1,1,"white_pumpkin.png","white","d6b108c6606a3fa88adaf603b92f499f3303907e","0|2|3|1",NA,"<strong>Director</strong>: white pumpkin","pumpkin",2,"tap",1574118289941,"pumpkin","corn",1,32,NA,1,"Graduated College",NA,"English","secondDistractor","banana",7318,"white pumpkin","red","orange","secondDistractor","male",40,1574118271172,0.312816666666667,2,"772581272006273"
"Mon Nov 18 2019 17:04:31 GMT-0600 (Central Standard Time)","1574118765926",1,1,"white_swan.png","green","d6b108c6606a3fa88adaf603b92f499f3303907e","0|2|1|3",NA,"<strong>Director</strong>: white bird","swan",2,"tap",1574118289941,"swan","lettuce",1,32,NA,1,"Graduated College",NA,"English","target","pumpkin",7883,"white bird","orange","white","target","male",41,1574118271172,0.312816666666667,2,"772581272006273"
"Mon Nov 18 2019 17:04:31 GMT-0600 (Central Standard Time)","1574118773707",1,1,"green_carrot.png","orange","d6b108c6606a3fa88adaf603b92f499f3303907e","2|1|0|3",NA,"<strong>Director</strong>: green carrot","carrot",2,"atn",1574118289941,"pumpkin","tomato",1,32,NA,1,"Graduated College",NA,"English","target","broccoli",6706,"green carrot","white","green","target","male",42,1574118271172,0.312816666666667,2,"772581272006273"
"Mon Nov 18 2019 17:04:31 GMT-0600 (Central Standard Time)","1574118781118",1,1,"yellow_corn.png","red","d6b108c6606a3fa88adaf603b92f499f3303907e","2|1|3|0",NA,"<strong>Director</strong>: yellow corn","corn",2,"tan",1574118289941,"broccoli","lettuce",1,32,NA,1,"Graduated College",NA,"English","target","strawberry",7173,"yellow corn","orange","yellow","target","male",43,1574118271172,0.312816666666667,2,"772581272006273"
"Mon Nov 18 2019 17:04:31 GMT-0600 (Central Standard Time)","1574118788714",1,1,"green_carrot.png","green","d6b108c6606a3fa88adaf603b92f499f3303907e","2|1|3|0",NA,"<strong>Director</strong>: green carrot","carrot",2,"tap",1574118289941,"carrot","swan",1,32,NA,1,"Graduated College",NA,"English","secondDistractor","lettuce",6281,"green carrot","white","orange","secondDistractor","male",44,1574118271172,0.312816666666667,2,"772581272006273"
"Mon Nov 18 2019 17:04:31 GMT-0600 (Central Standard Time)","1574118795484",1,1,"orange_banana.png","orange","d6b108c6606a3fa88adaf603b92f499f3303907e","0|2|1|3",NA,"<strong>Director</strong>: orange banana","banana",2,"tap",1574118289941,"banana","tomato",1,32,NA,1,"Graduated College",NA,"English","secondDistractor","strawberry",6902,"orange banana","red","yellow","secondDistractor","male",45,1574118271172,0.312816666666667,2,"772581272006273"
"Mon Nov 18 2019 17:04:31 GMT-0600 (Central Standard Time)","1574118802920",1,1,"red_broccoli.png","green","d6b108c6606a3fa88adaf603b92f499f3303907e","2|0|3|1",NA,"<strong>Director</strong>: red brocoli","broccoli",2,"atp",1574118289941,"broccoli","banana",1,32,NA,1,"Graduated College",NA,"English","target","strawberry",5966,"red brocoli","yellow","red","target","male",46,1574118271172,0.312816666666667,2,"772581272006273"
"Mon Nov 18 2019 17:04:31 GMT-0600 (Central Standard Time)","1574118809444",1,1,"green_lettuce.png","yellow","d6b108c6606a3fa88adaf603b92f499f3303907e","0|2|3|1",NA,"<strong>Director</strong>: green cabbage","banana",2,"atp",1574118289941,"banana","lettuce",1,32,NA,1,"Graduated College",NA,"English","thirdDistractor","carrot",6249,"green cabbage","green","orange","thirdDistractor","male",47,1574118271172,0.312816666666667,2,"772581272006273"
"Mon Nov 18 2019 17:04:31 GMT-0600 (Central Standard Time)","1574118820188",1,1,"yellow_corn.png","red","d6b108c6606a3fa88adaf603b92f499f3303907e","2|0|1|3","1574118793389","<strong>Matcher</strong>: red\n<strong>Director</strong>: yellow corn","broccoli",2,"ttn",1574118289941,"strawberry","corn",1,32,NA,1,"Graduated College","red","English","thirdDistractor","lettuce",11288,"yellow corn","yellow","green","thirdDistractor","male",48,1574118271172,0.312816666666667,2,"772581272006273"
"Mon Nov 18 2019 17:04:31 GMT-0600 (Central Standard Time)","1574118828846",1,1,"orange_carrot.png","white","d6b108c6606a3fa88adaf603b92f499f3303907e","0|2|3|1",NA,"<strong>Director</strong>: carrot","pumpkin",2,"ttp",1574118289941,"pumpkin","banana",1,32,NA,1,"Graduated College",NA,"English","firstDistractor","carrot",7210,"carrot","yellow","orange","firstDistractor","male",49,1574118271172,0.312816666666667,2,"772581272006273"
"Mon Nov 18 2019 17:04:31 GMT-0600 (Central Standard Time)","1574118836725",1,1,"orange_pumpkin.png","yellow","d6b108c6606a3fa88adaf603b92f499f3303907e","0|1|3|2",NA,"<strong>Director</strong>: orange pumpkin","tomato",2,"atn",1574118289941,"strawberry","pumpkin",1,32,NA,1,"Graduated College",NA,"English","thirdDistractor","swan",6723,"orange pumpkin","orange","white","thirdDistractor","male",50,1574118271172,0.312816666666667,2,"772581272006273"
"Mon Nov 18 2019 17:04:31 GMT-0600 (Central Standard Time)","1574118844866",1,1,"green_broccoli.png","green","d6b108c6606a3fa88adaf603b92f499f3303907e","3|0|1|2",NA,"<strong>Director</strong>: green brocoli","broccoli",2,"atp",1574118289941,"broccoli","banana",1,32,NA,1,"Graduated College",NA,"English","secondDistractor","tomato",7591,"green brocoli","yellow","red","secondDistractor","male",51,1574118271172,0.312816666666667,2,"772581272006273"
"Mon Nov 18 2019 17:04:31 GMT-0600 (Central Standard Time)","1574118850957",1,1,"green_swan.png","red","d6b108c6606a3fa88adaf603b92f499f3303907e","2|1|3|0",NA,"<strong>Director</strong>: green bird","strawberry",2,"atp",1574118289941,"strawberry","swan",1,32,NA,1,"Graduated College",NA,"English","thirdDistractor","corn",5849,"green bird","green","yellow","thirdDistractor","male",52,1574118271172,0.312816666666667,2,"772581272006273"
"Mon Nov 18 2019 17:04:31 GMT-0600 (Central Standard Time)","1574118858331",1,1,"white_pumpkin.png","red","d6b108c6606a3fa88adaf603b92f499f3303907e","3|1|2|0",NA,"<strong>Director</strong>: white pumpkin","lettuce",2,"tan",1574118289941,"strawberry","pumpkin",1,32,NA,1,"Graduated College",NA,"English","thirdDistractor","swan",8368,"white pumpkin","white","green","thirdDistractor","male",53,1574118271172,0.312816666666667,2,"772581272006273"
"Mon Nov 18 2019 17:04:31 GMT-0600 (Central Standard Time)","1574118866845",1,1,"orange_pumpkin.png","yellow","d6b108c6606a3fa88adaf603b92f499f3303907e","1|0|3|2",NA,"<strong>Director</strong>: pumpkin","broccoli",2,"atn",1574118289941,"corn","pumpkin",1,32,NA,1,"Graduated College",NA,"English","thirdDistractor","tomato",6867,"pumpkin","orange","red","thirdDistractor","male",54,1574118271172,0.312816666666667,2,"772581272006273"
"Mon Nov 18 2019 17:04:31 GMT-0600 (Central Standard Time)","1574118874403",1,1,"orange_lettuce.png","green","d6b108c6606a3fa88adaf603b92f499f3303907e","2|3|0|1",NA,"<strong>Director</strong>: orange cabbage","lettuce",2,"atp",1574118289941,"lettuce","tomato",1,32,NA,1,"Graduated College",NA,"English","target","carrot",7052,"orange cabbage","white","orange","target","male",55,1574118271172,0.312816666666667,2,"772581272006273"
"Mon Nov 18 2019 17:04:31 GMT-0600 (Central Standard Time)","1574118881928",1,1,"yellow_corn.png","orange","d6b108c6606a3fa88adaf603b92f499f3303907e","3|0|2|1",NA,"<strong>Director</strong>: yellow corn","banana",2,"ttp",1574118289941,"banana","swan",1,32,NA,1,"Graduated College",NA,"English","firstDistractor","corn",6849,"yellow corn","green","yellow","firstDistractor","male",56,1574118271172,0.312816666666667,2,"772581272006273"
"Mon Nov 18 2019 17:04:31 GMT-0600 (Central Standard Time)","1574118888636",1,1,"yellow_egg.png","orange","d6b108c6606a3fa88adaf603b92f499f3303907e","1|3|0|2",NA,"<strong>Director</strong>: yellow egg","egg",2,"atn",1574118289941,"lettuce","pumpkin",1,32,NA,1,"Graduated College",NA,"English","target","banana",5882,"yellow egg","white","yellow","target","male",57,1574118271172,0.312816666666667,2,"772581272006273"
"Mon Nov 18 2019 17:04:31 GMT-0600 (Central Standard Time)","1574118894372",1,1,"white_egg.png","red","d6b108c6606a3fa88adaf603b92f499f3303907e","2|1|3|0",NA,"<strong>Director</strong>: white egg","tomato",2,"atp",1574118289941,"tomato","banana",1,32,NA,1,"Graduated College",NA,"English","firstDistractor","egg",5410,"white egg","yellow","white","firstDistractor","male",58,1574118271172,0.312816666666667,2,"772581272006273"
"Mon Nov 18 2019 17:04:31 GMT-0600 (Central Standard Time)","1574118901760",1,1,"yellow_strawberry.png","orange","d6b108c6606a3fa88adaf603b92f499f3303907e","0|3|2|1",NA,"<strong>Director</strong>: yellow strawberry","carrot",2,"atp",1574118289941,"carrot","strawberry",1,32,NA,1,"Graduated College",NA,"English","thirdDistractor","broccoli",6536,"yellow strawberry","yellow","green","thirdDistractor","male",59,1574118271172,0.312816666666667,2,"772581272006273"
"Mon Nov 18 2019 17:04:31 GMT-0600 (Central Standard Time)","1574118909976",1,1,"white_tomato.png","yellow","d6b108c6606a3fa88adaf603b92f499f3303907e","0|3|2|1",NA,"<strong>Director</strong>: white tomato","tomato",2,"aan",1574118289941,"strawberry","lettuce",1,32,NA,1,"Graduated College",NA,"English","target","pumpkin",8854,"white tomato","orange","white","target","male",60,1574118271172,0.312816666666667,2,"772581272006273"
"Mon Nov 18 2019 17:03:41 GMT-0600 (Central Standard Time)","1574118380842",1,2,"white_tomato.png","orange","b33725fcbc7dd51e6ca574993e29a9b64f4c272b","1|0|2|3",NA,"<strong>Director</strong>: It is the smaller white object","pumpkin",2,"aap",1574118309823,"pumpkin","strawberry",1,NA,NA,2,"Higher Degree",NA,"English","firstDistractor","tomato",16496,"It is the smaller white object","yellow","white","firstDistractor","female",1,1574118221981,1.46403333333333,2,"353222897175240"
"Mon Nov 18 2019 17:03:41 GMT-0600 (Central Standard Time)","1574118392444",1,2,"red_tomato.png","white","b33725fcbc7dd51e6ca574993e29a9b64f4c272b","1|3|2|0",NA,"<strong>Director</strong>: It is the red object","swan",2,"aap",1574118309823,"swan","tomato",1,NA,NA,2,"Higher Degree",NA,"English","thirdDistractor","carrot",10499,"It is the red object","red","green","thirdDistractor","female",2,1574118221981,1.46403333333333,2,"353222897175240"
"Mon Nov 18 2019 17:03:41 GMT-0600 (Central Standard Time)","1574118403027",1,2,"white_egg.png","white","b33725fcbc7dd51e6ca574993e29a9b64f4c272b","1|2|3|0",NA,"<strong>Director</strong>: It is the white object","egg",2,"atp",1574118309823,"egg","strawberry",1,NA,NA,2,"Higher Degree",NA,"English","secondDistractor","banana",9003,"It is the white object","red","yellow","secondDistractor","female",3,1574118221981,1.46403333333333,2,"353222897175240"
"Mon Nov 18 2019 17:03:41 GMT-0600 (Central Standard Time)","1574118414450",1,2,"yellow_egg.png","white","b33725fcbc7dd51e6ca574993e29a9b64f4c272b","3|0|1|2",NA,"<strong>Director</strong>: It is the yellow object","pumpkin",2,"tap",1574118309823,"pumpkin","egg",1,NA,NA,2,"Higher Degree",NA,"English","thirdDistractor","lettuce",10898,"It is the yellow object","yellow","orange","thirdDistractor","female",4,1574118221981,1.46403333333333,2,"353222897175240"
"Mon Nov 18 2019 17:03:41 GMT-0600 (Central Standard Time)","1574118424954",1,2,"white_tomato.png","green","b33725fcbc7dd51e6ca574993e29a9b64f4c272b","0|2|3|1",NA,"<strong>Director</strong>: It is the white object","lettuce",2,"atn",1574118309823,"swan","tomato",1,NA,NA,2,"Higher Degree",NA,"English","thirdDistractor","carrot",9832,"It is the white object","white","orange","thirdDistractor","female",5,1574118221981,1.46403333333333,2,"353222897175240"
"Mon Nov 18 2019 17:03:41 GMT-0600 (Central Standard Time)","1574118433910",1,2,"yellow_banana.png","green","b33725fcbc7dd51e6ca574993e29a9b64f4c272b","3|0|2|1",NA,"<strong>Director</strong>: It is the yellow object","swan",2,"tap",1574118309823,"swan","banana",1,NA,NA,2,"Higher Degree",NA,"English","thirdDistractor","tomato",8825,"It is the yellow object","yellow","white","thirdDistractor","female",6,1574118221981,1.46403333333333,2,"353222897175240"
"Mon Nov 18 2019 17:03:41 GMT-0600 (Central Standard Time)","1574118445060",1,2,"white_pumpkin.png","green","b33725fcbc7dd51e6ca574993e29a9b64f4c272b","0|3|1|2",NA,"<strong>Director</strong>: It is a round white object","pumpkin",2,"atn",1574118309823,"carrot","lettuce",1,NA,NA,2,"Higher Degree",NA,"English","target","swan",10709,"It is a round white object","orange","white","target","female",7,1574118221981,1.46403333333333,2,"353222897175240"
"Mon Nov 18 2019 17:03:41 GMT-0600 (Central Standard Time)","1574118455490",1,2,"orange_banana.png","red","b33725fcbc7dd51e6ca574993e29a9b64f4c272b","2|1|0|3",NA,"<strong>Director</strong>: It is a dark orange object","egg",2,"atn",1574118309823,"strawberry","banana",1,NA,NA,2,"Higher Degree",NA,"English","thirdDistractor","corn",10153,"It is a dark orange object","orange","yellow","thirdDistractor","female",8,1574118221981,1.46403333333333,2,"353222897175240"
"Mon Nov 18 2019 17:03:41 GMT-0600 (Central Standard Time)","1574118469235",1,2,"white_egg.png","green","b33725fcbc7dd51e6ca574993e29a9b64f4c272b","2|3|0|1",NA,"<strong>Director</strong>: It is the smaller white object","egg",2,"tan",1574118309823,"broccoli","corn",1,NA,NA,2,"Higher Degree",NA,"English","target","pumpkin",12525,"It is the smaller white object","yellow","white","target","female",9,1574118221981,1.46403333333333,2,"353222897175240"
"Mon Nov 18 2019 17:03:41 GMT-0600 (Central Standard Time)","1574118479038",1,2,"yellow_banana.png","green","b33725fcbc7dd51e6ca574993e29a9b64f4c272b","3|1|0|2",NA,"<strong>Director</strong>: It is the long yellow object","banana",2,"tan",1574118309823,"carrot","broccoli",1,NA,NA,2,"Higher Degree",NA,"English","target","strawberry",9543,"It is the long yellow object","red","yellow","target","female",10,1574118221981,1.46403333333333,2,"353222897175240"
"Mon Nov 18 2019 17:03:41 GMT-0600 (Central Standard Time)","1574118488634",1,2,"white_tomato.png","yellow","b33725fcbc7dd51e6ca574993e29a9b64f4c272b","3|2|1|0",NA,"<strong>Director</strong>: It is the white object.","pumpkin",2,"tan",1574118309823,"banana","tomato",1,NA,NA,2,"Higher Degree",NA,"English","thirdDistractor","lettuce",8939,"It is the white object.","white","orange","thirdDistractor","female",11,1574118221981,1.46403333333333,2,"353222897175240"
"Mon Nov 18 2019 17:03:41 GMT-0600 (Central Standard Time)","1574118500454",1,2,"yellow_egg.png","orange","b33725fcbc7dd51e6ca574993e29a9b64f4c272b","2|0|3|1",NA,"<strong>Director</strong>: It is a bright yellow object.","egg",2,"aan",1574118309823,"lettuce","broccoli",1,NA,NA,2,"Higher Degree",NA,"English","target","strawberry",13068,"It is a bright yellow object.","red","yellow","target","female",12,1574118221981,1.46403333333333,2,"353222897175240"
"Mon Nov 18 2019 17:03:41 GMT-0600 (Central Standard Time)","1574118513541",1,2,"orange_pumpkin.png","yellow","b33725fcbc7dd51e6ca574993e29a9b64f4c272b","0|2|3|1",NA,"<strong>Director</strong>: It is a round orange object","pumpkin",2,"ttn",1574118309823,"egg","broccoli",1,NA,NA,2,"Higher Degree",NA,"English","target","carrot",11177,"It is a round orange object","green","orange","target","female",13,1574118221981,1.46403333333333,2,"353222897175240"
"Mon Nov 18 2019 17:03:41 GMT-0600 (Central Standard Time)","1574118523298",1,2,"red_strawberry.png","orange","b33725fcbc7dd51e6ca574993e29a9b64f4c272b","0|3|1|2",NA,"<strong>Director</strong>: It is a red object","banana",2,"tap",1574118309823,"banana","strawberry",1,NA,NA,2,"Higher Degree",NA,"English","thirdDistractor","egg",8383,"It is a red object","red","yellow","thirdDistractor","female",14,1574118221981,1.46403333333333,2,"353222897175240"
"Mon Nov 18 2019 17:03:41 GMT-0600 (Central Standard Time)","1574118532324",1,2,"yellow_corn.png","green","b33725fcbc7dd51e6ca574993e29a9b64f4c272b","3|1|0|2",NA,"<strong>Director</strong>: It is the corn","corn",2,"ttn",1574118309823,"lettuce","broccoli",1,NA,NA,2,"Higher Degree",NA,"English","target","banana",8814,"It is the corn","red","yellow","target","female",15,1574118221981,1.46403333333333,2,"353222897175240"
"Mon Nov 18 2019 17:03:41 GMT-0600 (Central Standard Time)","1574118545768",1,2,"yellow_egg.png","white","b33725fcbc7dd51e6ca574993e29a9b64f4c272b","1|2|3|0",NA,"<strong>Director</strong>: It is the yellow egg","egg",2,"aap",1574118309823,"egg","swan",1,NA,NA,2,"Higher Degree",NA,"English","target","strawberry",13260,"It is the yellow egg","green","yellow","target","female",16,1574118221981,1.46403333333333,2,"353222897175240"
"Mon Nov 18 2019 17:03:41 GMT-0600 (Central Standard Time)","1574118553854",1,2,"white_egg.png","yellow","b33725fcbc7dd51e6ca574993e29a9b64f4c272b","1|3|0|2",NA,"<strong>Director</strong>: It is the white egg","corn",2,"atn",1574118309823,"banana","egg",1,NA,NA,2,"Higher Degree",NA,"English","thirdDistractor","tomato",6714,"It is the white egg","white","red","thirdDistractor","female",17,1574118221981,1.46403333333333,2,"353222897175240"
"Mon Nov 18 2019 17:03:41 GMT-0600 (Central Standard Time)","1574118566118",1,2,"green_broccoli.png","red","b33725fcbc7dd51e6ca574993e29a9b64f4c272b","1|2|0|3",NA,"<strong>Director</strong>: It is the green vegetable","tomato",2,"atp",1574118309823,"tomato","broccoli",1,NA,NA,2,"Higher Degree",NA,"English","thirdDistractor","swan",11573,"It is the green vegetable","green","white","thirdDistractor","female",18,1574118221981,1.46403333333333,2,"353222897175240"
"Mon Nov 18 2019 17:03:41 GMT-0600 (Central Standard Time)","1574118574724",1,2,"red_strawberry.png","orange","b33725fcbc7dd51e6ca574993e29a9b64f4c272b","2|0|3|1",NA,"<strong>Director</strong>: It is the strawberry","strawberry",2,"ttn",1574118309823,"pumpkin","egg",1,NA,NA,2,"Higher Degree",NA,"English","target","tomato",8733,"It is the strawberry","white","red","target","female",19,1574118221981,1.46403333333333,2,"353222897175240"
"Mon Nov 18 2019 17:03:41 GMT-0600 (Central Standard Time)","1574118582994",1,2,"white_swan.png","orange","b33725fcbc7dd51e6ca574993e29a9b64f4c272b","1|0|3|2",NA,"<strong>Director</strong>: It is the goose","pumpkin",2,"atp",1574118309823,"pumpkin","egg",1,NA,NA,2,"Higher Degree",NA,"English","firstDistractor","swan",7427,"It is the goose","yellow","white","firstDistractor","female",20,1574118221981,1.46403333333333,2,"353222897175240"
"Mon Nov 18 2019 17:03:41 GMT-0600 (Central Standard Time)","1574118593703",1,2,"orange_banana.png","green","b33725fcbc7dd51e6ca574993e29a9b64f4c272b","3|2|0|1",NA,"<strong>Director</strong>: It is the orange banana","lettuce",2,"aap",1574118309823,"lettuce","broccoli",1,NA,NA,2,"Higher Degree",NA,"English","firstDistractor","banana",9835,"It is the orange banana","red","orange","firstDistractor","female",21,1574118221981,1.46403333333333,2,"353222897175240"
"Mon Nov 18 2019 17:03:41 GMT-0600 (Central Standard Time)","1574118601971",1,2,"yellow_egg.png","yellow","b33725fcbc7dd51e6ca574993e29a9b64f4c272b","2|0|3|1",NA,"<strong>Director</strong>: It is the yellow egg","egg",2,"tap",1574118309823,"egg","corn",1,NA,NA,2,"Higher Degree",NA,"English","secondDistractor","pumpkin",8538,"It is the yellow egg","red","white","secondDistractor","female",22,1574118221981,1.46403333333333,2,"353222897175240"
"Mon Nov 18 2019 17:03:41 GMT-0600 (Central Standard Time)","1574118611627",1,2,"green_swan.png","red","b33725fcbc7dd51e6ca574993e29a9b64f4c272b","1|2|3|0",NA,"<strong>Director</strong>: It is the green bird","swan",2,"aan",1574118309823,"tomato","banana",1,NA,NA,2,"Higher Degree",NA,"English","target","carrot",8663,"It is the green bird","yellow","green","target","female",23,1574118221981,1.46403333333333,2,"353222897175240"
"Mon Nov 18 2019 17:03:41 GMT-0600 (Central Standard Time)","1574118623086",1,2,"orange_lettuce.png","red","b33725fcbc7dd51e6ca574993e29a9b64f4c272b","0|2|3|1",NA,"<strong>Director</strong>: It is the orange cabbage","lettuce",2,"atn",1574118309823,"corn","tomato",1,NA,NA,2,"Higher Degree",NA,"English","target","pumpkin",11235,"It is the orange cabbage","white","orange","target","female",24,1574118221981,1.46403333333333,2,"353222897175240"
"Mon Nov 18 2019 17:03:41 GMT-0600 (Central Standard Time)","1574118633049",1,2,"white_pumpkin.png","red","b33725fcbc7dd51e6ca574993e29a9b64f4c272b","2|1|3|0",NA,"<strong>Director</strong>: It is the larger white object","pumpkin",2,"aan",1574118309823,"broccoli","banana",1,NA,NA,2,"Higher Degree",NA,"English","target","tomato",8921,"It is the larger white object","orange","white","target","female",25,1574118221981,1.46403333333333,2,"353222897175240"
"Mon Nov 18 2019 17:03:41 GMT-0600 (Central Standard Time)","1574118642274",1,2,"red_tomato.png","yellow","b33725fcbc7dd51e6ca574993e29a9b64f4c272b","3|0|1|2",NA,"<strong>Director</strong>: It is the larger red object","tomato",2,"ttn",1574118309823,"corn","pumpkin",1,NA,NA,2,"Higher Degree",NA,"English","target","strawberry",9741,"It is the larger red object","white","red","target","female",26,1574118221981,1.46403333333333,2,"353222897175240"
"Mon Nov 18 2019 17:03:41 GMT-0600 (Central Standard Time)","1574118651872",1,2,"orange_pumpkin.png","white","b33725fcbc7dd51e6ca574993e29a9b64f4c272b","2|0|1|3",NA,"<strong>Director</strong>: It is the yellow object","banana",2,"atn",1574118309823,"egg","corn",1,NA,NA,2,"Higher Degree",NA,"English","firstDistractor","pumpkin",11526,"It is the yellow object","yellow","orange","thirdDistractor","female",27,1574118221981,1.46403333333333,2,"353222897175240"
"Mon Nov 18 2019 17:03:41 GMT-0600 (Central Standard Time)","1574118663718",1,2,"white_tomato.png","green","b33725fcbc7dd51e6ca574993e29a9b64f4c272b","0|3|2|1",NA,"<strong>Director</strong>: It is the white object","banana",2,"tan",1574118309823,"carrot","tomato",1,NA,NA,2,"Higher Degree",NA,"English","thirdDistractor","egg",7702,"It is the white object","white","yellow","thirdDistractor","female",28,1574118221981,1.46403333333333,2,"353222897175240"
"Mon Nov 18 2019 17:03:41 GMT-0600 (Central Standard Time)","1574118671492",1,2,"green_lettuce.png","red","b33725fcbc7dd51e6ca574993e29a9b64f4c272b","0|2|3|1",NA,"<strong>Director</strong>: It is the cabbage","lettuce",2,"tan",1574118309823,"broccoli","strawberry",1,NA,NA,2,"Higher Degree",NA,"English","target","carrot",7304,"It is the cabbage","yellow","green","target","female",29,1574118221981,1.46403333333333,2,"353222897175240"
"Mon Nov 18 2019 17:03:41 GMT-0600 (Central Standard Time)","1574118680494",1,2,"green_swan.png","orange","b33725fcbc7dd51e6ca574993e29a9b64f4c272b","2|1|0|3",NA,"<strong>Director</strong>: It is the green bird","lettuce",2,"tap",1574118309823,"lettuce","broccoli",1,NA,NA,2,"Higher Degree",NA,"English","firstDistractor","swan",8194,"It is the green bird","red","green","firstDistractor","female",30,1574118221981,1.46403333333333,2,"353222897175240"
"Mon Nov 18 2019 17:03:41 GMT-0600 (Central Standard Time)","1574118686734",1,2,"white_tomato.png","white","b33725fcbc7dd51e6ca574993e29a9b64f4c272b","2|3|1|0",NA,"<strong>Director</strong>: white object","tomato",2,"tap",1574118309823,"tomato","egg",1,NA,NA,2,"Higher Degree",NA,"English","secondDistractor","corn",5577,"white object","yellow","red","secondDistractor","female",31,1574118221981,1.46403333333333,2,"353222897175240"
"Mon Nov 18 2019 17:03:41 GMT-0600 (Central Standard Time)","1574118692710",1,2,"green_lettuce.png","orange","b33725fcbc7dd51e6ca574993e29a9b64f4c272b","0|2|1|3",NA,"<strong>Director</strong>: cabbage","lettuce",2,"ttp",1574118309823,"lettuce","egg",1,NA,NA,2,"Higher Degree",NA,"English","target","broccoli",6183,"cabbage","yellow","green","target","female",32,1574118221981,1.46403333333333,2,"353222897175240"
"Mon Nov 18 2019 17:03:41 GMT-0600 (Central Standard Time)","1574118700468",1,2,"yellow_egg.png","yellow","b33725fcbc7dd51e6ca574993e29a9b64f4c272b","2|0|1|3",NA,"<strong>Director</strong>: yellow egg","egg",2,"tap",1574118309823,"egg","carrot",1,NA,NA,2,"Higher Degree",NA,"English","secondDistractor","tomato",6566,"yellow egg","orange","white","secondDistractor","female",33,1574118221981,1.46403333333333,2,"353222897175240"
"Mon Nov 18 2019 17:03:41 GMT-0600 (Central Standard Time)","1574118708322",1,2,"red_broccoli.png","green","b33725fcbc7dd51e6ca574993e29a9b64f4c272b","0|1|3|2",NA,"<strong>Director</strong>: red brocoli","broccoli",2,"aap",1574118309823,"broccoli","banana",1,NA,NA,2,"Higher Degree",NA,"English","target","corn",7956,"red brocoli","yellow","red","target","female",34,1574118221981,1.46403333333333,2,"353222897175240"
"Mon Nov 18 2019 17:03:41 GMT-0600 (Central Standard Time)","1574118716052",1,2,"green_carrot.png","orange","b33725fcbc7dd51e6ca574993e29a9b64f4c272b","3|0|2|1",NA,"<strong>Director</strong>: green carrot","lettuce",2,"tap",1574118309823,"lettuce","corn",1,NA,NA,2,"Higher Degree",NA,"English","firstDistractor","carrot",6990,"green carrot","yellow","green","firstDistractor","female",35,1574118221981,1.46403333333333,2,"353222897175240"
"Mon Nov 18 2019 17:03:41 GMT-0600 (Central Standard Time)","1574118724382",1,2,"yellow_corn.png","red","b33725fcbc7dd51e6ca574993e29a9b64f4c272b","0|3|2|1",NA,"<strong>Director</strong>: yellow corn","corn",2,"tap",1574118309823,"corn","carrot",1,NA,NA,2,"Higher Degree",NA,"English","target","strawberry",7496,"yellow corn","orange","yellow","target","female",36,1574118221981,1.46403333333333,2,"353222897175240"
"Mon Nov 18 2019 17:03:41 GMT-0600 (Central Standard Time)","1574118732461",1,2,"white_swan.png","green","b33725fcbc7dd51e6ca574993e29a9b64f4c272b","1|3|0|2",NA,"<strong>Director</strong>: white bird","swan",2,"ttp",1574118309823,"swan","lettuce",1,NA,NA,2,"Higher Degree",NA,"English","target","egg",10363,"white bird","orange","white","target","female",37,1574118221981,1.46403333333333,2,"353222897175240"
"Mon Nov 18 2019 17:03:41 GMT-0600 (Central Standard Time)","1574118742470",1,2,"green_carrot.png","yellow","b33725fcbc7dd51e6ca574993e29a9b64f4c272b","1|3|2|0",NA,"<strong>Director</strong>: green carrot","broccoli",2,"atn",1574118309823,"corn","carrot",1,NA,NA,2,"Higher Degree",NA,"English","thirdDistractor","strawberry",6584,"green carrot","green","red","thirdDistractor","female",38,1574118221981,1.46403333333333,2,"353222897175240"
"Mon Nov 18 2019 17:03:41 GMT-0600 (Central Standard Time)","1574118749850",1,2,"yellow_strawberry.png","red","b33725fcbc7dd51e6ca574993e29a9b64f4c272b","1|0|3|2",NA,"<strong>Director</strong>: yellow strawberry","pumpkin",2,"atn",1574118309823,"corn","strawberry",1,NA,NA,2,"Higher Degree",NA,"English","thirdDistractor","egg",7430,"yellow strawberry","yellow","white","thirdDistractor","female",39,1574118221981,1.46403333333333,2,"353222897175240"
"Mon Nov 18 2019 17:03:41 GMT-0600 (Central Standard Time)","1574118757990",1,2,"white_pumpkin.png","white","b33725fcbc7dd51e6ca574993e29a9b64f4c272b","3|2|0|1",NA,"<strong>Director</strong>: white pumpkin","pumpkin",2,"tap",1574118309823,"pumpkin","corn",1,NA,NA,2,"Higher Degree",NA,"English","secondDistractor","banana",7318,"white pumpkin","red","orange","secondDistractor","female",40,1574118221981,1.46403333333333,2,"353222897175240"
"Mon Nov 18 2019 17:03:41 GMT-0600 (Central Standard Time)","1574118765926",1,2,"white_swan.png","green","b33725fcbc7dd51e6ca574993e29a9b64f4c272b","3|0|1|2",NA,"<strong>Director</strong>: white bird","swan",2,"tap",1574118309823,"swan","lettuce",1,NA,NA,2,"Higher Degree",NA,"English","target","pumpkin",7883,"white bird","orange","white","target","female",41,1574118221981,1.46403333333333,2,"353222897175240"
"Mon Nov 18 2019 17:03:41 GMT-0600 (Central Standard Time)","1574118773707",1,2,"green_carrot.png","orange","b33725fcbc7dd51e6ca574993e29a9b64f4c272b","3|1|0|2",NA,"<strong>Director</strong>: green carrot","carrot",2,"atn",1574118309823,"pumpkin","tomato",1,NA,NA,2,"Higher Degree",NA,"English","target","broccoli",6706,"green carrot","white","green","target","female",42,1574118221981,1.46403333333333,2,"353222897175240"
"Mon Nov 18 2019 17:03:41 GMT-0600 (Central Standard Time)","1574118781118",1,2,"yellow_corn.png","red","b33725fcbc7dd51e6ca574993e29a9b64f4c272b","3|0|1|2",NA,"<strong>Director</strong>: yellow corn","corn",2,"tan",1574118309823,"broccoli","lettuce",1,NA,NA,2,"Higher Degree",NA,"English","target","strawberry",7173,"yellow corn","orange","yellow","target","female",43,1574118221981,1.46403333333333,2,"353222897175240"
"Mon Nov 18 2019 17:03:41 GMT-0600 (Central Standard Time)","1574118788714",1,2,"green_carrot.png","green","b33725fcbc7dd51e6ca574993e29a9b64f4c272b","3|0|2|1",NA,"<strong>Director</strong>: green carrot","carrot",2,"tap",1574118309823,"carrot","swan",1,NA,NA,2,"Higher Degree",NA,"English","secondDistractor","lettuce",6281,"green carrot","white","orange","secondDistractor","female",44,1574118221981,1.46403333333333,2,"353222897175240"
"Mon Nov 18 2019 17:03:41 GMT-0600 (Central Standard Time)","1574118795484",1,2,"orange_banana.png","orange","b33725fcbc7dd51e6ca574993e29a9b64f4c272b","1|2|0|3",NA,"<strong>Director</strong>: orange banana","banana",2,"tap",1574118309823,"banana","tomato",1,NA,NA,2,"Higher Degree",NA,"English","secondDistractor","strawberry",6902,"orange banana","red","yellow","secondDistractor","female",45,1574118221981,1.46403333333333,2,"353222897175240"
"Mon Nov 18 2019 17:03:41 GMT-0600 (Central Standard Time)","1574118802920",1,2,"red_broccoli.png","green","b33725fcbc7dd51e6ca574993e29a9b64f4c272b","3|1|0|2",NA,"<strong>Director</strong>: red brocoli","broccoli",2,"atp",1574118309823,"broccoli","banana",1,NA,NA,2,"Higher Degree",NA,"English","target","strawberry",5966,"red brocoli","yellow","red","target","female",46,1574118221981,1.46403333333333,2,"353222897175240"
