"startDate","speaker_timestamps","glb_chain","glb_variant","selected_image","contrastColor","participant_id","color_indices","listener_timestamps","conversation","targetType","glb_realization","condition","endTime","contrastType","distractorType","chain","age","comments","variant","education","listener_chat","languages","selected_type","compType","RT","speaker_chat","distractorColor","targetcompColor","intended_target","gender","trial_number","startTime","timeSpent","realization","anon_worker_id"
"Sun Dec 08 2019 21:37:56 GMT-0800 (Pacific Standard Time)","1575869956109",1,2,"green_swan.png","white","21ac9a7574705b3c3f2d5ceeb8bea28af127314e","3|0|2|1",NA,"<strong>Director</strong>: swan","swan",1,"aan",1575869946223,"pumpkin","lettuce",1,88,"TEST",2,"Graduated College",NA,"german","target","carrot",9823,"swan","orange","green","target","other",1,1575869876042,1.16968333333333,1,"398547015853330"
"Sun Dec 08 2019 21:37:56 GMT-0800 (Pacific Standard Time)","1575869963152",1,2,"orange_pumpkin.png","white","21ac9a7574705b3c3f2d5ceeb8bea28af127314e","0|3|2|1",NA,"<strong>Director</strong>: pumpkin","pumpkin",1,"tan",1575869946223,"tomato","broccoli",1,88,"TEST",2,"Graduated College",NA,"german","target","lettuce",6910,"pumpkin","red","orange","target","other",2,1575869876042,1.16968333333333,1,"398547015853330"
"Sun Dec 08 2019 21:37:56 GMT-0800 (Pacific Standard Time)","1575869971083",1,2,"yellow_corn.png","green","21ac9a7574705b3c3f2d5ceeb8bea28af127314e","3|1|2|0",NA,"<strong>Director</strong>: corn","lettuce",1,"atn",1575869946223,"broccoli","corn",1,88,"TEST",2,"Graduated College",NA,"german","thirdDistractor","pumpkin",7162,"corn","yellow","orange","thirdDistractor","other",3,1575869876042,1.16968333333333,1,"398547015853330"
"Sun Dec 08 2019 21:37:56 GMT-0800 (Pacific Standard Time)","1575869987090",1,2,"orange_carrot.png","red","21ac9a7574705b3c3f2d5ceeb8bea28af127314e","2|0|1|3",NA,"<strong>Director</strong>: carrot","banana",1,"tan",1575869946223,"tomato","carrot",1,88,"TEST",2,"Graduated College",NA,"german","thirdDistractor","strawberry",15304,"carrot","orange","yellow","thirdDistractor","other",4,1575869876042,1.16968333333333,1,"398547015853330"
"Sun Dec 08 2019 21:37:56 GMT-0800 (Pacific Standard Time)","1575869993559",1,2,"orange_banana.png","yellow","21ac9a7574705b3c3f2d5ceeb8bea28af127314e","0|3|1|2",NA,"<strong>Director</strong>: again","banana",1,"aan",1575869946223,"egg","pumpkin",1,88,"TEST",2,"Graduated College",NA,"german","target","lettuce",6162,"again","white","orange","target","other",5,1575869876042,1.16968333333333,1,"398547015853330"
"Sun Dec 08 2019 21:37:56 GMT-0800 (Pacific Standard Time)","1575870002636",1,2,"red_tomato.png","yellow","21ac9a7574705b3c3f2d5ceeb8bea28af127314e","2|3|1|0",NA,"<strong>Director</strong>: tom","corn",1,"atp",1575869946223,"corn","egg",1,88,"TEST",2,"Graduated College",NA,"german","firstDistractor","tomato",8149,"tom","white","red","firstDistractor","other",6,1575869876042,1.16968333333333,1,"398547015853330"
"Sun Dec 08 2019 21:37:56 GMT-0800 (Pacific Standard Time)","1575870007953",1,2,"green_swan.png","yellow","21ac9a7574705b3c3f2d5ceeb8bea28af127314e","2|3|1|0",NA,"<strong>Director</strong>: swan","pumpkin",1,"aan",1575869946223,"corn","swan",1,88,"TEST",2,"Graduated College",NA,"german","thirdDistractor","tomato",4790,"swan","green","white","thirdDistractor","other",7,1575869876042,1.16968333333333,1,"398547015853330"
"Sun Dec 08 2019 21:37:56 GMT-0800 (Pacific Standard Time)","1575870013519",1,2,"green_swan.png","white","21ac9a7574705b3c3f2d5ceeb8bea28af127314e","1|3|0|2",NA,"<strong>Director</strong>: again","swan",1,"atn",1575869946223,"pumpkin","strawberry",1,88,"TEST",2,"Graduated College",NA,"german","target","lettuce",5122,"again","yellow","green","target","other",8,1575869876042,1.16968333333333,1,"398547015853330"
"Sun Dec 08 2019 21:37:56 GMT-0800 (Pacific Standard Time)","1575870020753",1,2,"orange_pumpkin.png","white","21ac9a7574705b3c3f2d5ceeb8bea28af127314e","1|3|2|0",NA,"<strong>Director</strong>: or pumpkin","pumpkin",1,"ttp",1575869946223,"pumpkin","corn",1,88,"TEST",2,"Graduated College",NA,"german","target","carrot",6494,"or pumpkin","red","orange","target","other",9,1575869876042,1.16968333333333,1,"398547015853330"
"Sun Dec 08 2019 21:37:56 GMT-0800 (Pacific Standard Time)","1575870027676",1,2,"red_broccoli.png","green","21ac9a7574705b3c3f2d5ceeb8bea28af127314e","1|0|3|2",NA,"<strong>Director</strong>: red brocc","broccoli",1,"aan",1575869946223,"carrot","lettuce",1,88,"TEST",2,"Graduated College",NA,"german","target","corn",6257,"red brocc","orange","red","target","other",10,1575869876042,1.16968333333333,1,"398547015853330"
"Sun Dec 08 2019 21:37:56 GMT-0800 (Pacific Standard Time)","1575870034727",1,2,"green_broccoli.png","yellow","21ac9a7574705b3c3f2d5ceeb8bea28af127314e","0|1|2|3",NA,"<strong>Director</strong>: green brocc","broccoli",1,"ttn",1575869946223,"egg","corn",1,88,"TEST",2,"Graduated College",NA,"german","target","lettuce",6554,"green brocc","red","green","target","other",11,1575869876042,1.16968333333333,1,"398547015853330"
"Sun Dec 08 2019 21:37:56 GMT-0800 (Pacific Standard Time)","1575870039224",1,2,"yellow_banana.png","green","21ac9a7574705b3c3f2d5ceeb8bea28af127314e","3|0|1|2",NA,"<strong>Director</strong>: ban","pumpkin",1,"atn",1575869946223,"broccoli","banana",1,88,"TEST",2,"Graduated College",NA,"german","thirdDistractor","egg",3969,"ban","yellow","white","thirdDistractor","other",12,1575869876042,1.16968333333333,1,"398547015853330"
"Sun Dec 08 2019 21:37:56 GMT-0800 (Pacific Standard Time)","1575870043717",1,2,"yellow_banana.png","green","21ac9a7574705b3c3f2d5ceeb8bea28af127314e","1|3|2|0",NA,"<strong>Director</strong>: ban","strawberry",1,"tan",1575869946223,"lettuce","banana",1,88,"TEST",2,"Graduated College",NA,"german","thirdDistractor","broccoli",3835,"ban","yellow","red","thirdDistractor","other",13,1575869876042,1.16968333333333,1,"398547015853330"
"Sun Dec 08 2019 21:37:56 GMT-0800 (Pacific Standard Time)","1575870047927|||1575870056390",1,2,"white_egg.png","yellow","21ac9a7574705b3c3f2d5ceeb8bea28af127314e","0|1|2|3","1575870054694","<strong>Director</strong>: egg\n<strong>Matcher</strong>: which\n<strong>Director</strong>: \nwhite","egg",1,"ttp",1575869946223,"egg","strawberry",1,88,"TEST",2,"Graduated College","which","german","target","swan",12444,"egg|||\nwhite","red","white","target","other",14,1575869876042,1.16968333333333,1,"398547015853330"
"Sun Dec 08 2019 21:37:56 GMT-0800 (Pacific Standard Time)","1575870064295",1,2,"green_swan.png","green","21ac9a7574705b3c3f2d5ceeb8bea28af127314e","0|1|2|3",NA,"<strong>Director</strong>: swan green","swan",1,"ttp",1575869946223,"swan","corn",1,88,"TEST",2,"Graduated College",NA,"german","secondDistractor","egg",7128,"swan green","red","white","secondDistractor","other",15,1575869876042,1.16968333333333,1,"398547015853330"
"Sun Dec 08 2019 21:37:56 GMT-0800 (Pacific Standard Time)","1575870070938",1,2,"white_tomato.png","white","21ac9a7574705b3c3f2d5ceeb8bea28af127314e","1|2|3|0",NA,"<strong>Director</strong>: white tom","tomato",1,"ttp",1575869946223,"tomato","lettuce",1,88,"TEST",2,"Graduated College",NA,"german","secondDistractor","strawberry",6360,"white tom","green","red","secondDistractor","other",16,1575869876042,1.16968333333333,1,"398547015853330"
"Sun Dec 08 2019 21:37:56 GMT-0800 (Pacific Standard Time)","1575870077596",1,2,"yellow_corn.png","orange","21ac9a7574705b3c3f2d5ceeb8bea28af127314e","1|3|0|2",NA,"<strong>Director</strong>: yel corn","banana",1,"ttp",1575869946223,"banana","tomato",1,88,"TEST",2,"Graduated College",NA,"german","firstDistractor","corn",5811,"yel corn","white","yellow","firstDistractor","other",17,1575869876042,1.16968333333333,1,"398547015853330"
"Sun Dec 08 2019 21:37:56 GMT-0800 (Pacific Standard Time)","1575870085154",1,2,"red_strawberry.png","white","21ac9a7574705b3c3f2d5ceeb8bea28af127314e","3|2|0|1",NA,"<strong>Director</strong>: strawb","lettuce",1,"atn",1575869946223,"tomato","strawberry",1,88,"TEST",2,"Graduated College",NA,"german","thirdDistractor","carrot",7371,"strawb","red","orange","thirdDistractor","other",18,1575869876042,1.16968333333333,1,"398547015853330"
"Sun Dec 08 2019 21:37:56 GMT-0800 (Pacific Standard Time)","1575870094579",1,2,"orange_carrot.png","yellow","21ac9a7574705b3c3f2d5ceeb8bea28af127314e","3|2|0|1",NA,"<strong>Director</strong>: carrot","carrot",1,"tan",1575869946223,"corn","swan",1,88,"TEST",2,"Graduated College",NA,"german","target","banana",9434,"carrot","green","orange","target","other",19,1575869876042,1.16968333333333,1,"398547015853330"
"Sun Dec 08 2019 21:37:56 GMT-0800 (Pacific Standard Time)","1575870113617",1,2,"yellow_banana.png","orange","21ac9a7574705b3c3f2d5ceeb8bea28af127314e","1|2|3|0",NA,"<strong>Director</strong>: ban","banana",1,"tan",1575869946223,"carrot","strawberry",1,88,"TEST",2,"Graduated College",NA,"german","target","egg",18061,"ban","red","yellow","target","other",20,1575869876042,1.16968333333333,1,"398547015853330"
"Sun Dec 08 2019 21:37:56 GMT-0800 (Pacific Standard Time)","1575870121198",1,2,"white_tomato.png","green","21ac9a7574705b3c3f2d5ceeb8bea28af127314e","3|1|0|2",NA,"<strong>Director</strong>: white tom","carrot",1,"tap",1575869946223,"carrot","tomato",1,88,"TEST",2,"Graduated College",NA,"german","thirdDistractor","lettuce",6448,"white tom","white","orange","thirdDistractor","other",21,1575869876042,1.16968333333333,1,"398547015853330"
"Sun Dec 08 2019 21:37:56 GMT-0800 (Pacific Standard Time)","1575870127491",1,2,"red_corn.png","red","21ac9a7574705b3c3f2d5ceeb8bea28af127314e","3|2|0|1",NA,"<strong>Director</strong>: red corn","corn",1,"tap",1575869946223,"corn","pumpkin",1,88,"TEST",2,"Graduated College",NA,"german","secondDistractor","egg",6888,"red corn","orange","yellow","secondDistractor","other",22,1575869876042,1.16968333333333,1,"398547015853330"
"Sun Dec 08 2019 21:37:56 GMT-0800 (Pacific Standard Time)","1575870135757",1,2,"yellow_strawberry.png","orange","21ac9a7574705b3c3f2d5ceeb8bea28af127314e","0|2|3|1",NA,"<strong>Director</strong>: yel strawb","strawberry",1,"atn",1575869946223,"banana","tomato",1,88,"TEST",2,"Graduated College",NA,"german","target","corn",6577,"yel strawb","red","yellow","target","other",23,1575869876042,1.16968333333333,1,"398547015853330"
"Sun Dec 08 2019 21:37:56 GMT-0800 (Pacific Standard Time)","1575870143886",1,2,"yellow_banana.png","orange","21ac9a7574705b3c3f2d5ceeb8bea28af127314e","3|2|1|0",NA,"<strong>Director</strong>: yel ban","banana",1,"tap",1575869946223,"banana","pumpkin",1,88,"TEST",2,"Graduated College",NA,"german","target","strawberry",7574,"yel ban","white","yellow","target","other",24,1575869876042,1.16968333333333,1,"398547015853330"
"Sun Dec 08 2019 21:37:56 GMT-0800 (Pacific Standard Time)","1575870151829",1,2,"green_lettuce.png","green","21ac9a7574705b3c3f2d5ceeb8bea28af127314e","2|1|3|0",NA,"<strong>Director</strong>: green lettuce","lettuce",1,"atp",1575869946223,"lettuce","egg",1,88,"TEST",2,"Graduated College",NA,"german","secondDistractor","pumpkin",7312,"green lettuce","white","orange","secondDistractor","other",25,1575869876042,1.16968333333333,1,"398547015853330"
"Sun Dec 08 2019 21:37:56 GMT-0800 (Pacific Standard Time)","1575870158024",1,2,"orange_pumpkin.png","red","21ac9a7574705b3c3f2d5ceeb8bea28af127314e","0|2|3|1",NA,"<strong>Director</strong>: or pumpkin","lettuce",1,"tan",1575869946223,"tomato","pumpkin",1,88,"TEST",2,"Graduated College",NA,"german","thirdDistractor","carrot",5577,"or pumpkin","orange","green","thirdDistractor","other",26,1575869876042,1.16968333333333,1,"398547015853330"
"Sun Dec 08 2019 21:37:56 GMT-0800 (Pacific Standard Time)","1575870164714",1,2,"red_broccoli.png","yellow","21ac9a7574705b3c3f2d5ceeb8bea28af127314e","3|2|0|1",NA,"<strong>Director</strong>: red brocc","broccoli",1,"atn",1575869946223,"banana","carrot",1,88,"TEST",2,"Graduated College",NA,"german","target","tomato",6243,"red brocc","green","red","target","other",27,1575869876042,1.16968333333333,1,"398547015853330"
"Sun Dec 08 2019 21:37:56 GMT-0800 (Pacific Standard Time)","1575870172090",1,2,"red_tomato.png","white","21ac9a7574705b3c3f2d5ceeb8bea28af127314e","2|0|3|1",NA,"<strong>Director</strong>: red tom","tomato",1,"tap",1575869946223,"tomato","pumpkin",1,88,"TEST",2,"Graduated College",NA,"german","target","corn",6962,"red tom","orange","red","target","other",28,1575869876042,1.16968333333333,1,"398547015853330"
"Sun Dec 08 2019 21:37:56 GMT-0800 (Pacific Standard Time)","1575870176929",1,2,"orange_banana.png","green","21ac9a7574705b3c3f2d5ceeb8bea28af127314e","0|2|1|3",NA,"<strong>Director</strong>: ban","swan",1,"tan",1575869946223,"lettuce","banana",1,88,"TEST",2,"Graduated College",NA,"german","thirdDistractor","tomato",3931,"ban","orange","white","thirdDistractor","other",29,1575869876042,1.16968333333333,1,"398547015853330"
"Sun Dec 08 2019 21:37:56 GMT-0800 (Pacific Standard Time)","1575870182260",1,2,"green_lettuce.png","red","21ac9a7574705b3c3f2d5ceeb8bea28af127314e","0|3|1|2",NA,"<strong>Director</strong>: lett","broccoli",1,"ttp",1575869946223,"broccoli","egg",1,88,"TEST",2,"Graduated College",NA,"german","firstDistractor","lettuce",4920,"lett","white","green","firstDistractor","other",30,1575869876042,1.16968333333333,1,"398547015853330"
"Sun Dec 08 2019 21:37:56 GMT-0800 (Pacific Standard Time)","1575870188143",1,2,"yellow_strawberry.png","green","21ac9a7574705b3c3f2d5ceeb8bea28af127314e","3|2|1|0",NA,"<strong>Director</strong>: strawb","pumpkin",1,"tan",1575869946223,"swan","strawberry",1,88,"TEST",2,"Graduated College",NA,"german","thirdDistractor","banana",5601,"strawb","yellow","orange","thirdDistractor","other",31,1575869876042,1.16968333333333,1,"398547015853330"
"Sun Dec 08 2019 21:37:56 GMT-0800 (Pacific Standard Time)","1575870194548",1,2,"green_swan.png","orange","21ac9a7574705b3c3f2d5ceeb8bea28af127314e","2|3|1|0",NA,"<strong>Director</strong>: swan","carrot",1,"aap",1575869946223,"carrot","pumpkin",1,88,"TEST",2,"Graduated College",NA,"german","firstDistractor","swan",5500,"swan","white","green","firstDistractor","other",32,1575869876042,1.16968333333333,1,"398547015853330"
"Sun Dec 08 2019 21:37:56 GMT-0800 (Pacific Standard Time)","1575870201404",1,2,"white_swan.png","white","21ac9a7574705b3c3f2d5ceeb8bea28af127314e","0|2|1|3",NA,"<strong>Director</strong>: white one","swan",1,"atp",1575869946223,"swan","pumpkin",1,88,"TEST",2,"Graduated College",NA,"german","secondDistractor","lettuce",6466,"white one","orange","green","secondDistractor","other",33,1575869876042,1.16968333333333,1,"398547015853330"
"Sun Dec 08 2019 21:37:56 GMT-0800 (Pacific Standard Time)","1575870206919",1,2,"orange_carrot.png","red","21ac9a7574705b3c3f2d5ceeb8bea28af127314e","0|3|2|1",NA,"<strong>Director</strong>: carrot","carrot",1,"ttn",1575869946223,"corn","lettuce",1,88,"TEST",2,"Graduated College",NA,"german","target","pumpkin",4791,"carrot","green","orange","target","other",34,1575869876042,1.16968333333333,1,"398547015853330"
"Sun Dec 08 2019 21:37:56 GMT-0800 (Pacific Standard Time)","1575870212920",1,2,"red_broccoli.png","yellow","21ac9a7574705b3c3f2d5ceeb8bea28af127314e","0|2|1|3",NA,"<strong>Director</strong>: red brocc","strawberry",1,"tap",1575869946223,"strawberry","pumpkin",1,88,"TEST",2,"Graduated College",NA,"german","firstDistractor","broccoli",5835,"red brocc","white","red","firstDistractor","other",35,1575869876042,1.16968333333333,1,"398547015853330"
"Sun Dec 08 2019 21:37:56 GMT-0800 (Pacific Standard Time)","1575870219940",1,2,"green_swan.png","yellow","21ac9a7574705b3c3f2d5ceeb8bea28af127314e","3|2|0|1",NA,"<strong>Director</strong>: green","carrot",1,"tan",1575869946223,"strawberry","swan",1,88,"TEST",2,"Graduated College",NA,"german","thirdDistractor","lettuce",6098,"green","green","orange","thirdDistractor","other",36,1575869876042,1.16968333333333,1,"398547015853330"
"Sun Dec 08 2019 21:37:56 GMT-0800 (Pacific Standard Time)","1575870228478",1,2,"green_carrot.png","yellow","21ac9a7574705b3c3f2d5ceeb8bea28af127314e","2|3|0|1",NA,"<strong>Director</strong>: green carrot","egg",1,"tap",1575869946223,"egg","carrot",1,88,"TEST",2,"Graduated College",NA,"german","thirdDistractor","tomato",7739,"green carrot","green","white","thirdDistractor","other",37,1575869876042,1.16968333333333,1,"398547015853330"
"Sun Dec 08 2019 21:37:56 GMT-0800 (Pacific Standard Time)","1575870237661",1,2,"orange_lettuce.png","yellow","21ac9a7574705b3c3f2d5ceeb8bea28af127314e","3|1|2|0",NA,"<strong>Director</strong>: or lettuce","banana",1,"aap",1575869946223,"banana","swan",1,88,"TEST",2,"Graduated College",NA,"german","firstDistractor","lettuce",8518,"or lettuce","white","orange","firstDistractor","other",38,1575869876042,1.16968333333333,1,"398547015853330"
"Sun Dec 08 2019 21:37:56 GMT-0800 (Pacific Standard Time)","1575870243546",1,2,"green_broccoli.png","white","21ac9a7574705b3c3f2d5ceeb8bea28af127314e","0|1|3|2",NA,"<strong>Director</strong>: brocc","swan",1,"atp",1575869946223,"swan","lettuce",1,88,"TEST",2,"Graduated College",NA,"german","firstDistractor","broccoli",5613,"brocc","orange","green","firstDistractor","other",39,1575869876042,1.16968333333333,1,"398547015853330"
"Sun Dec 08 2019 21:37:56 GMT-0800 (Pacific Standard Time)","1575870250083",1,2,"white_tomato.png","red","21ac9a7574705b3c3f2d5ceeb8bea28af127314e","3|1|2|0",NA,"<strong>Director</strong>: white tom","tomato",1,"atp",1575869946223,"tomato","strawberry",1,88,"TEST",2,"Graduated College",NA,"german","target","swan",5726,"white tom","yellow","white","target","other",40,1575869876042,1.16968333333333,1,"398547015853330"
"Sun Dec 08 2019 21:37:56 GMT-0800 (Pacific Standard Time)","1575870255693",1,2,"yellow_egg.png","white","21ac9a7574705b3c3f2d5ceeb8bea28af127314e","2|3|1|0",NA,"<strong>Director</strong>: yel egg","egg",1,"aap",1575869946223,"egg","banana",1,88,"TEST",2,"Graduated College",NA,"german","target","strawberry",4995,"yel egg","orange","yellow","target","other",41,1575869876042,1.16968333333333,1,"398547015853330"
"Sun Dec 08 2019 21:37:56 GMT-0800 (Pacific Standard Time)","1575870261599",1,2,"white_pumpkin.png","green","21ac9a7574705b3c3f2d5ceeb8bea28af127314e","1|0|3|2",NA,"<strong>Director</strong>: pumpkin","lettuce",1,"aan",1575869946223,"broccoli","pumpkin",1,88,"TEST",2,"Graduated College",NA,"german","thirdDistractor","banana",5454,"pumpkin","white","orange","thirdDistractor","other",42,1575869876042,1.16968333333333,1,"398547015853330"
"Sun Dec 08 2019 21:37:56 GMT-0800 (Pacific Standard Time)","1575870267211",1,2,"yellow_banana.png","yellow","21ac9a7574705b3c3f2d5ceeb8bea28af127314e","0|3|1|2",NA,"<strong>Director</strong>: yel ban","banana",1,"atp",1575869946223,"banana","broccoli",1,88,"TEST",2,"Graduated College",NA,"german","secondDistractor","pumpkin",4995,"yel ban","red","orange","secondDistractor","other",43,1575869876042,1.16968333333333,1,"398547015853330"
"Sun Dec 08 2019 21:37:56 GMT-0800 (Pacific Standard Time)","1575870273597",1,2,"red_strawberry.png","green","21ac9a7574705b3c3f2d5ceeb8bea28af127314e","0|2|3|1",NA,"<strong>Director</strong>: strawb","egg",1,"atn",1575869946223,"swan","strawberry",1,88,"TEST",2,"Graduated College",NA,"german","thirdDistractor","banana",5875,"strawb","red","yellow","thirdDistractor","other",44,1575869876042,1.16968333333333,1,"398547015853330"
"Sun Dec 08 2019 21:37:56 GMT-0800 (Pacific Standard Time)","1575870282568",1,2,"yellow_strawberry.png","red","21ac9a7574705b3c3f2d5ceeb8bea28af127314e","1|0|3|2","1575870285627","<strong>Director</strong>: yell this time\n<strong>Matcher</strong>: yupp","strawberry",1,"aap",1575869946223,"strawberry","lettuce",1,88,"TEST",2,"Graduated College","yupp","german","target","egg",11293,"yell this time","orange","yellow","target","other",45,1575869876042,1.16968333333333,1,"398547015853330"
"Sun Dec 08 2019 21:37:56 GMT-0800 (Pacific Standard Time)","1575870294987",1,2,"orange_banana.png","yellow","21ac9a7574705b3c3f2d5ceeb8bea28af127314e","1|3|0|2",NA,"<strong>Director</strong>: or ban","carrot",1,"atn",1575869946223,"egg","banana",1,88,"TEST",2,"Graduated College",NA,"german","thirdDistractor","broccoli",8654,"or ban","orange","green","thirdDistractor","other",46,1575869876042,1.16968333333333,1,"398547015853330"
"Sun Dec 08 2019 21:37:56 GMT-0800 (Pacific Standard Time)","1575870304862",1,2,"white_tomato.png","white","21ac9a7574705b3c3f2d5ceeb8bea28af127314e","2|3|1|0",NA,"<strong>Director</strong>: white tom","tomato",1,"tap",1575869946223,"tomato","lettuce",1,88,"TEST",2,"Graduated College",NA,"german","secondDistractor","broccoli",9529,"white tom","green","red","secondDistractor","other",47,1575869876042,1.16968333333333,1,"398547015853330"
"Sun Dec 08 2019 21:37:56 GMT-0800 (Pacific Standard Time)","1575870311147",1,2,"green_carrot.png","yellow","21ac9a7574705b3c3f2d5ceeb8bea28af127314e","1|0|2|3",NA,"<strong>Director</strong>: green carrot","carrot",1,"aan",1575869946223,"strawberry","banana",1,88,"TEST",2,"Graduated College",NA,"german","target","swan",6094,"green carrot","orange","green","target","other",48,1575869876042,1.16968333333333,1,"398547015853330"
"Sun Dec 08 2019 21:37:56 GMT-0800 (Pacific Standard Time)","1575870318702",1,2,"yellow_strawberry.png","green","21ac9a7574705b3c3f2d5ceeb8bea28af127314e","0|1|2|3",NA,"<strong>Director</strong>: yel strawb","egg",1,"tan",1575869946223,"carrot","strawberry",1,88,"TEST",2,"Graduated College",NA,"german","thirdDistractor","pumpkin",6688,"yel strawb","yellow","white","thirdDistractor","other",49,1575869876042,1.16968333333333,1,"398547015853330"
"Sun Dec 08 2019 21:37:56 GMT-0800 (Pacific Standard Time)","1575870326196",1,2,"green_broccoli.png","orange","21ac9a7574705b3c3f2d5ceeb8bea28af127314e","0|1|3|2",NA,"<strong>Director</strong>: green brocc","pumpkin",1,"aap",1575869946223,"pumpkin","broccoli",1,88,"TEST",2,"Graduated College",NA,"german","thirdDistractor","tomato",8679,"green brocc","green","white","thirdDistractor","other",50,1575869876042,1.16968333333333,1,"398547015853330"
"Sun Dec 08 2019 21:37:56 GMT-0800 (Pacific Standard Time)","1575870336844",1,2,"green_carrot.png","red","21ac9a7574705b3c3f2d5ceeb8bea28af127314e","0|2|3|1",NA,"<strong>Director</strong>: green carrot","broccoli",1,"tap",1575869946223,"broccoli","swan",1,88,"TEST",2,"Graduated College",NA,"german","firstDistractor","carrot",8015,"green carrot","white","green","firstDistractor","other",51,1575869876042,1.16968333333333,1,"398547015853330"
"Sun Dec 08 2019 21:37:56 GMT-0800 (Pacific Standard Time)","1575870342422",1,2,"green_lettuce.png","orange","21ac9a7574705b3c3f2d5ceeb8bea28af127314e","2|3|0|1",NA,"<strong>Director</strong>: lettuce","lettuce",1,"ttn",1575869946223,"pumpkin","tomato",1,88,"TEST",2,"Graduated College",NA,"german","target","broccoli",5012,"lettuce","white","green","target","other",52,1575869876042,1.16968333333333,1,"398547015853330"
"Sun Dec 08 2019 21:37:56 GMT-0800 (Pacific Standard Time)","1575870347528",1,2,"green_swan.png","yellow","21ac9a7574705b3c3f2d5ceeb8bea28af127314e","2|1|0|3",NA,"<strong>Director</strong>: swan","swan",1,"atn",1575869946223,"strawberry","banana",1,88,"TEST",2,"Graduated College",NA,"german","target","broccoli",4667,"swan","orange","green","target","other",53,1575869876042,1.16968333333333,1,"398547015853330"
"Sun Dec 08 2019 21:37:56 GMT-0800 (Pacific Standard Time)","1575870352911",1,2,"green_swan.png","yellow","21ac9a7574705b3c3f2d5ceeb8bea28af127314e","0|2|1|3",NA,"<strong>Director</strong>: again","broccoli",1,"atn",1575869946223,"egg","swan",1,88,"TEST",2,"Graduated College",NA,"german","thirdDistractor","strawberry",4611,"again","green","red","thirdDistractor","other",54,1575869876042,1.16968333333333,1,"398547015853330"
"Sun Dec 08 2019 21:37:56 GMT-0800 (Pacific Standard Time)","1575870358891",1,2,"red_tomato.png","orange","21ac9a7574705b3c3f2d5ceeb8bea28af127314e","0|3|1|2",NA,"<strong>Director</strong>: tom","broccoli",1,"tan",1575869946223,"banana","tomato",1,88,"TEST",2,"Graduated College",NA,"german","thirdDistractor","swan",5392,"tom","red","green","thirdDistractor","other",55,1575869876042,1.16968333333333,1,"398547015853330"
"Sun Dec 08 2019 21:37:56 GMT-0800 (Pacific Standard Time)","1575870365733",1,2,"orange_lettuce.png","green","21ac9a7574705b3c3f2d5ceeb8bea28af127314e","2|1|0|3",NA,"<strong>Director</strong>: or lettuce","lettuce",1,"atp",1575869946223,"lettuce","egg",1,88,"TEST",2,"Graduated College",NA,"german","target","carrot",5978,"or lettuce","white","orange","target","other",56,1575869876042,1.16968333333333,1,"398547015853330"
"Sun Dec 08 2019 21:37:56 GMT-0800 (Pacific Standard Time)","1575870372101",1,2,"yellow_strawberry.png","orange","21ac9a7574705b3c3f2d5ceeb8bea28af127314e","2|0|1|3",NA,"<strong>Director</strong>: strawb","tomato",1,"tan",1575869946223,"pumpkin","strawberry",1,88,"TEST",2,"Graduated College",NA,"german","thirdDistractor","broccoli",6012,"strawb","yellow","red","thirdDistractor","other",57,1575869876042,1.16968333333333,1,"398547015853330"
"Sun Dec 08 2019 21:37:56 GMT-0800 (Pacific Standard Time)","1575870378473",1,2,"yellow_corn.png","green","21ac9a7574705b3c3f2d5ceeb8bea28af127314e","1|0|2|3",NA,"<strong>Director</strong>: corn","corn",1,"ttn",1575869946223,"carrot","egg",1,88,"TEST",2,"Graduated College",NA,"german","target","banana",6018,"corn","white","yellow","target","other",58,1575869876042,1.16968333333333,1,"398547015853330"
"Sun Dec 08 2019 21:37:56 GMT-0800 (Pacific Standard Time)","1575870384543",1,2,"red_strawberry.png","green","21ac9a7574705b3c3f2d5ceeb8bea28af127314e","3|0|1|2",NA,"<strong>Director</strong>: strawb","strawberry",1,"tan",1575869946223,"swan","tomato",1,88,"TEST",2,"Graduated College",NA,"german","target","corn",5296,"strawb","white","red","target","other",59,1575869876042,1.16968333333333,1,"398547015853330"
"Sun Dec 08 2019 21:37:56 GMT-0800 (Pacific Standard Time)","1575870391379",1,2,"red_strawberry.png","red","21ac9a7574705b3c3f2d5ceeb8bea28af127314e","0|3|1|2",NA,"<strong>Director</strong>: red strawb","strawberry",1,"atp",1575869946223,"strawberry","swan",1,88,"TEST",2,"Graduated College",NA,"german","secondDistractor","banana",6295,"red strawb","green","yellow","secondDistractor","other",60,1575869876042,1.16968333333333,1,"398547015853330"
"Sun Dec 08 2019 21:37:33 GMT-0800 (Pacific Standard Time)","1575869956109",1,1,"green_swan.png","white","db6fbf8e9403a2566d7e4c6e076774f60af0830b","1|0|3|2",NA,"<strong>Director</strong>: swan","swan",1,"aan",1575869927345,"pumpkin","lettuce",1,77,"TEST",1,"Graduated College",NA,"german","target","carrot",9823,"swan","orange","green","target","other",1,1575869853107,1.2373,1,"398547015853330"
"Sun Dec 08 2019 21:37:33 GMT-0800 (Pacific Standard Time)","1575869963152",1,1,"orange_pumpkin.png","white","db6fbf8e9403a2566d7e4c6e076774f60af0830b","2|0|1|3",NA,"<strong>Director</strong>: pumpkin","pumpkin",1,"tan",1575869927345,"tomato","broccoli",1,77,"TEST",1,"Graduated College",NA,"german","target","lettuce",6910,"pumpkin","red","orange","target","other",2,1575869853107,1.2373,1,"398547015853330"
"Sun Dec 08 2019 21:37:33 GMT-0800 (Pacific Standard Time)","1575869971083",1,1,"yellow_corn.png","green","db6fbf8e9403a2566d7e4c6e076774f60af0830b","0|3|1|2",NA,"<strong>Director</strong>: corn","lettuce",1,"atn",1575869927345,"broccoli","corn",1,77,"TEST",1,"Graduated College",NA,"german","thirdDistractor","pumpkin",7162,"corn","yellow","orange","thirdDistractor","other",3,1575869853107,1.2373,1,"398547015853330"
"Sun Dec 08 2019 21:37:33 GMT-0800 (Pacific Standard Time)","1575869987090",1,1,"orange_carrot.png","red","db6fbf8e9403a2566d7e4c6e076774f60af0830b","3|2|1|0",NA,"<strong>Director</strong>: carrot","banana",1,"tan",1575869927345,"tomato","carrot",1,77,"TEST",1,"Graduated College",NA,"german","thirdDistractor","strawberry",15304,"carrot","orange","yellow","thirdDistractor","other",4,1575869853107,1.2373,1,"398547015853330"
"Sun Dec 08 2019 21:37:33 GMT-0800 (Pacific Standard Time)","1575869993559",1,1,"orange_banana.png","yellow","db6fbf8e9403a2566d7e4c6e076774f60af0830b","0|2|3|1",NA,"<strong>Director</strong>: again","banana",1,"aan",1575869927345,"egg","pumpkin",1,77,"TEST",1,"Graduated College",NA,"german","target","lettuce",6162,"again","white","orange","target","other",5,1575869853107,1.2373,1,"398547015853330"
"Sun Dec 08 2019 21:37:33 GMT-0800 (Pacific Standard Time)","1575870002636",1,1,"red_tomato.png","yellow","db6fbf8e9403a2566d7e4c6e076774f60af0830b","2|0|3|1",NA,"<strong>Director</strong>: tom","corn",1,"atp",1575869927345,"corn","egg",1,77,"TEST",1,"Graduated College",NA,"german","firstDistractor","tomato",8149,"tom","white","red","firstDistractor","other",6,1575869853107,1.2373,1,"398547015853330"
"Sun Dec 08 2019 21:37:33 GMT-0800 (Pacific Standard Time)","1575870007953",1,1,"green_swan.png","yellow","db6fbf8e9403a2566d7e4c6e076774f60af0830b","2|3|1|0",NA,"<strong>Director</strong>: swan","pumpkin",1,"aan",1575869927345,"corn","swan",1,77,"TEST",1,"Graduated College",NA,"german","thirdDistractor","tomato",4790,"swan","green","white","thirdDistractor","other",7,1575869853107,1.2373,1,"398547015853330"
"Sun Dec 08 2019 21:37:33 GMT-0800 (Pacific Standard Time)","1575870013519",1,1,"green_swan.png","white","db6fbf8e9403a2566d7e4c6e076774f60af0830b","2|0|3|1",NA,"<strong>Director</strong>: again","swan",1,"atn",1575869927345,"pumpkin","strawberry",1,77,"TEST",1,"Graduated College",NA,"german","target","lettuce",5122,"again","yellow","green","target","other",8,1575869853107,1.2373,1,"398547015853330"
"Sun Dec 08 2019 21:37:33 GMT-0800 (Pacific Standard Time)","1575870020753",1,1,"orange_pumpkin.png","white","db6fbf8e9403a2566d7e4c6e076774f60af0830b","3|1|2|0",NA,"<strong>Director</strong>: or pumpkin","pumpkin",1,"ttp",1575869927345,"pumpkin","corn",1,77,"TEST",1,"Graduated College",NA,"german","target","carrot",6494,"or pumpkin","red","orange","target","other",9,1575869853107,1.2373,1,"398547015853330"
"Sun Dec 08 2019 21:37:33 GMT-0800 (Pacific Standard Time)","1575870027676",1,1,"red_broccoli.png","green","db6fbf8e9403a2566d7e4c6e076774f60af0830b","2|1|0|3",NA,"<strong>Director</strong>: red brocc","broccoli",1,"aan",1575869927345,"carrot","lettuce",1,77,"TEST",1,"Graduated College",NA,"german","target","corn",6257,"red brocc","orange","red","target","other",10,1575869853107,1.2373,1,"398547015853330"
"Sun Dec 08 2019 21:37:33 GMT-0800 (Pacific Standard Time)","1575870034727",1,1,"green_broccoli.png","yellow","db6fbf8e9403a2566d7e4c6e076774f60af0830b","3|1|0|2",NA,"<strong>Director</strong>: green brocc","broccoli",1,"ttn",1575869927345,"egg","corn",1,77,"TEST",1,"Graduated College",NA,"german","target","lettuce",6554,"green brocc","red","green","target","other",11,1575869853107,1.2373,1,"398547015853330"
"Sun Dec 08 2019 21:37:33 GMT-0800 (Pacific Standard Time)","1575870039224",1,1,"yellow_banana.png","green","db6fbf8e9403a2566d7e4c6e076774f60af0830b","0|2|3|1",NA,"<strong>Director</strong>: ban","pumpkin",1,"atn",1575869927345,"broccoli","banana",1,77,"TEST",1,"Graduated College",NA,"german","thirdDistractor","egg",3969,"ban","yellow","white","thirdDistractor","other",12,1575869853107,1.2373,1,"398547015853330"
"Sun Dec 08 2019 21:37:33 GMT-0800 (Pacific Standard Time)","1575870043717",1,1,"yellow_banana.png","green","db6fbf8e9403a2566d7e4c6e076774f60af0830b","1|0|2|3",NA,"<strong>Director</strong>: ban","strawberry",1,"tan",1575869927345,"lettuce","banana",1,77,"TEST",1,"Graduated College",NA,"german","thirdDistractor","broccoli",3835,"ban","yellow","red","thirdDistractor","other",13,1575869853107,1.2373,1,"398547015853330"
"Sun Dec 08 2019 21:37:33 GMT-0800 (Pacific Standard Time)","1575870047927|||1575870056390",1,1,"white_egg.png","yellow","db6fbf8e9403a2566d7e4c6e076774f60af0830b","2|1|0|3","1575870054694","<strong>Director</strong>: egg\n<strong>Matcher</strong>: which\n<strong>Director</strong>: \nwhite","egg",1,"ttp",1575869927345,"egg","strawberry",1,77,"TEST",1,"Graduated College","which","german","target","swan",12444,"egg|||\nwhite","red","white","target","other",14,1575869853107,1.2373,1,"398547015853330"
"Sun Dec 08 2019 21:37:33 GMT-0800 (Pacific Standard Time)","1575870064295",1,1,"green_swan.png","green","db6fbf8e9403a2566d7e4c6e076774f60af0830b","1|2|0|3",NA,"<strong>Director</strong>: swan green","swan",1,"ttp",1575869927345,"swan","corn",1,77,"TEST",1,"Graduated College",NA,"german","secondDistractor","egg",7128,"swan green","red","white","secondDistractor","other",15,1575869853107,1.2373,1,"398547015853330"
"Sun Dec 08 2019 21:37:33 GMT-0800 (Pacific Standard Time)","1575870070938",1,1,"white_tomato.png","white","db6fbf8e9403a2566d7e4c6e076774f60af0830b","2|1|0|3",NA,"<strong>Director</strong>: white tom","tomato",1,"ttp",1575869927345,"tomato","lettuce",1,77,"TEST",1,"Graduated College",NA,"german","secondDistractor","strawberry",6360,"white tom","green","red","secondDistractor","other",16,1575869853107,1.2373,1,"398547015853330"
"Sun Dec 08 2019 21:37:33 GMT-0800 (Pacific Standard Time)","1575870077596",1,1,"yellow_corn.png","orange","db6fbf8e9403a2566d7e4c6e076774f60af0830b","0|3|1|2",NA,"<strong>Director</strong>: yel corn","banana",1,"ttp",1575869927345,"banana","tomato",1,77,"TEST",1,"Graduated College",NA,"german","firstDistractor","corn",5811,"yel corn","white","yellow","firstDistractor","other",17,1575869853107,1.2373,1,"398547015853330"
"Sun Dec 08 2019 21:37:33 GMT-0800 (Pacific Standard Time)","1575870085154",1,1,"red_strawberry.png","white","db6fbf8e9403a2566d7e4c6e076774f60af0830b","1|0|3|2",NA,"<strong>Director</strong>: strawb","lettuce",1,"atn",1575869927345,"tomato","strawberry",1,77,"TEST",1,"Graduated College",NA,"german","thirdDistractor","carrot",7371,"strawb","red","orange","thirdDistractor","other",18,1575869853107,1.2373,1,"398547015853330"
"Sun Dec 08 2019 21:37:33 GMT-0800 (Pacific Standard Time)","1575870094579",1,1,"orange_carrot.png","yellow","db6fbf8e9403a2566d7e4c6e076774f60af0830b","3|1|2|0",NA,"<strong>Director</strong>: carrot","carrot",1,"tan",1575869927345,"corn","swan",1,77,"TEST",1,"Graduated College",NA,"german","target","banana",9434,"carrot","green","orange","target","other",19,1575869853107,1.2373,1,"398547015853330"
"Sun Dec 08 2019 21:37:33 GMT-0800 (Pacific Standard Time)","1575870113617",1,1,"yellow_banana.png","orange","db6fbf8e9403a2566d7e4c6e076774f60af0830b","3|0|2|1",NA,"<strong>Director</strong>: ban","banana",1,"tan",1575869927345,"carrot","strawberry",1,77,"TEST",1,"Graduated College",NA,"german","target","egg",18061,"ban","red","yellow","target","other",20,1575869853107,1.2373,1,"398547015853330"
"Sun Dec 08 2019 21:37:33 GMT-0800 (Pacific Standard Time)","1575870121198",1,1,"white_tomato.png","green","db6fbf8e9403a2566d7e4c6e076774f60af0830b","0|1|2|3",NA,"<strong>Director</strong>: white tom","carrot",1,"tap",1575869927345,"carrot","tomato",1,77,"TEST",1,"Graduated College",NA,"german","thirdDistractor","lettuce",6448,"white tom","white","orange","thirdDistractor","other",21,1575869853107,1.2373,1,"398547015853330"
"Sun Dec 08 2019 21:37:33 GMT-0800 (Pacific Standard Time)","1575870127491",1,1,"red_corn.png","red","db6fbf8e9403a2566d7e4c6e076774f60af0830b","0|2|3|1",NA,"<strong>Director</strong>: red corn","corn",1,"tap",1575869927345,"corn","pumpkin",1,77,"TEST",1,"Graduated College",NA,"german","secondDistractor","egg",6888,"red corn","orange","yellow","secondDistractor","other",22,1575869853107,1.2373,1,"398547015853330"
"Sun Dec 08 2019 21:37:33 GMT-0800 (Pacific Standard Time)","1575870135757",1,1,"yellow_strawberry.png","orange","db6fbf8e9403a2566d7e4c6e076774f60af0830b","3|2|0|1",NA,"<strong>Director</strong>: yel strawb","strawberry",1,"atn",1575869927345,"banana","tomato",1,77,"TEST",1,"Graduated College",NA,"german","target","corn",6577,"yel strawb","red","yellow","target","other",23,1575869853107,1.2373,1,"398547015853330"
"Sun Dec 08 2019 21:37:33 GMT-0800 (Pacific Standard Time)","1575870143886",1,1,"yellow_banana.png","orange","db6fbf8e9403a2566d7e4c6e076774f60af0830b","3|0|2|1",NA,"<strong>Director</strong>: yel ban","banana",1,"tap",1575869927345,"banana","pumpkin",1,77,"TEST",1,"Graduated College",NA,"german","target","strawberry",7574,"yel ban","white","yellow","target","other",24,1575869853107,1.2373,1,"398547015853330"
"Sun Dec 08 2019 21:37:33 GMT-0800 (Pacific Standard Time)","1575870151829",1,1,"green_lettuce.png","green","db6fbf8e9403a2566d7e4c6e076774f60af0830b","3|1|2|0",NA,"<strong>Director</strong>: green lettuce","lettuce",1,"atp",1575869927345,"lettuce","egg",1,77,"TEST",1,"Graduated College",NA,"german","secondDistractor","pumpkin",7312,"green lettuce","white","orange","secondDistractor","other",25,1575869853107,1.2373,1,"398547015853330"
"Sun Dec 08 2019 21:37:33 GMT-0800 (Pacific Standard Time)","1575870158024",1,1,"orange_pumpkin.png","red","db6fbf8e9403a2566d7e4c6e076774f60af0830b","2|3|1|0",NA,"<strong>Director</strong>: or pumpkin","lettuce",1,"tan",1575869927345,"tomato","pumpkin",1,77,"TEST",1,"Graduated College",NA,"german","thirdDistractor","carrot",5577,"or pumpkin","orange","green","thirdDistractor","other",26,1575869853107,1.2373,1,"398547015853330"
"Sun Dec 08 2019 21:37:33 GMT-0800 (Pacific Standard Time)","1575870164714",1,1,"red_broccoli.png","yellow","db6fbf8e9403a2566d7e4c6e076774f60af0830b","1|2|3|0",NA,"<strong>Director</strong>: red brocc","broccoli",1,"atn",1575869927345,"banana","carrot",1,77,"TEST",1,"Graduated College",NA,"german","target","tomato",6243,"red brocc","green","red","target","other",27,1575869853107,1.2373,1,"398547015853330"
"Sun Dec 08 2019 21:37:33 GMT-0800 (Pacific Standard Time)","1575870172090",1,1,"red_tomato.png","white","db6fbf8e9403a2566d7e4c6e076774f60af0830b","3|1|0|2",NA,"<strong>Director</strong>: red tom","tomato",1,"tap",1575869927345,"tomato","pumpkin",1,77,"TEST",1,"Graduated College",NA,"german","target","corn",6962,"red tom","orange","red","target","other",28,1575869853107,1.2373,1,"398547015853330"
"Sun Dec 08 2019 21:37:33 GMT-0800 (Pacific Standard Time)","1575870176929",1,1,"orange_banana.png","green","db6fbf8e9403a2566d7e4c6e076774f60af0830b","3|1|2|0",NA,"<strong>Director</strong>: ban","swan",1,"tan",1575869927345,"lettuce","banana",1,77,"TEST",1,"Graduated College",NA,"german","thirdDistractor","tomato",3931,"ban","orange","white","thirdDistractor","other",29,1575869853107,1.2373,1,"398547015853330"
"Sun Dec 08 2019 21:37:33 GMT-0800 (Pacific Standard Time)","1575870182260",1,1,"green_lettuce.png","red","db6fbf8e9403a2566d7e4c6e076774f60af0830b","2|3|0|1",NA,"<strong>Director</strong>: lett","broccoli",1,"ttp",1575869927345,"broccoli","egg",1,77,"TEST",1,"Graduated College",NA,"german","firstDistractor","lettuce",4920,"lett","white","green","firstDistractor","other",30,1575869853107,1.2373,1,"398547015853330"
"Sun Dec 08 2019 21:37:33 GMT-0800 (Pacific Standard Time)","1575870188143",1,1,"yellow_strawberry.png","green","db6fbf8e9403a2566d7e4c6e076774f60af0830b","1|3|2|0",NA,"<strong>Director</strong>: strawb","pumpkin",1,"tan",1575869927345,"swan","strawberry",1,77,"TEST",1,"Graduated College",NA,"german","thirdDistractor","banana",5601,"strawb","yellow","orange","thirdDistractor","other",31,1575869853107,1.2373,1,"398547015853330"
"Sun Dec 08 2019 21:37:33 GMT-0800 (Pacific Standard Time)","1575870194548",1,1,"green_swan.png","orange","db6fbf8e9403a2566d7e4c6e076774f60af0830b","2|0|3|1",NA,"<strong>Director</strong>: swan","carrot",1,"aap",1575869927345,"carrot","pumpkin",1,77,"TEST",1,"Graduated College",NA,"german","firstDistractor","swan",5500,"swan","white","green","firstDistractor","other",32,1575869853107,1.2373,1,"398547015853330"
"Sun Dec 08 2019 21:37:33 GMT-0800 (Pacific Standard Time)","1575870201404",1,1,"white_swan.png","white","db6fbf8e9403a2566d7e4c6e076774f60af0830b","0|1|3|2",NA,"<strong>Director</strong>: white one","swan",1,"atp",1575869927345,"swan","pumpkin",1,77,"TEST",1,"Graduated College",NA,"german","secondDistractor","lettuce",6466,"white one","orange","green","secondDistractor","other",33,1575869853107,1.2373,1,"398547015853330"
"Sun Dec 08 2019 21:37:33 GMT-0800 (Pacific Standard Time)","1575870206919",1,1,"orange_carrot.png","red","db6fbf8e9403a2566d7e4c6e076774f60af0830b","0|1|2|3",NA,"<strong>Director</strong>: carrot","carrot",1,"ttn",1575869927345,"corn","lettuce",1,77,"TEST",1,"Graduated College",NA,"german","target","pumpkin",4791,"carrot","green","orange","target","other",34,1575869853107,1.2373,1,"398547015853330"
"Sun Dec 08 2019 21:37:33 GMT-0800 (Pacific Standard Time)","1575870212920",1,1,"red_broccoli.png","yellow","db6fbf8e9403a2566d7e4c6e076774f60af0830b","0|1|3|2",NA,"<strong>Director</strong>: red brocc","strawberry",1,"tap",1575869927345,"strawberry","pumpkin",1,77,"TEST",1,"Graduated College",NA,"german","firstDistractor","broccoli",5835,"red brocc","white","red","firstDistractor","other",35,1575869853107,1.2373,1,"398547015853330"
"Sun Dec 08 2019 21:37:33 GMT-0800 (Pacific Standard Time)","1575870219940",1,1,"green_swan.png","yellow","db6fbf8e9403a2566d7e4c6e076774f60af0830b","2|3|1|0",NA,"<strong>Director</strong>: green","carrot",1,"tan",1575869927345,"strawberry","swan",1,77,"TEST",1,"Graduated College",NA,"german","thirdDistractor","lettuce",6098,"green","green","orange","thirdDistractor","other",36,1575869853107,1.2373,1,"398547015853330"
"Sun Dec 08 2019 21:37:33 GMT-0800 (Pacific Standard Time)","1575870228478",1,1,"green_carrot.png","yellow","db6fbf8e9403a2566d7e4c6e076774f60af0830b","0|1|3|2",NA,"<strong>Director</strong>: green carrot","egg",1,"tap",1575869927345,"egg","carrot",1,77,"TEST",1,"Graduated College",NA,"german","thirdDistractor","tomato",7739,"green carrot","green","white","thirdDistractor","other",37,1575869853107,1.2373,1,"398547015853330"
"Sun Dec 08 2019 21:37:33 GMT-0800 (Pacific Standard Time)","1575870237661",1,1,"orange_lettuce.png","yellow","db6fbf8e9403a2566d7e4c6e076774f60af0830b","2|1|3|0",NA,"<strong>Director</strong>: or lettuce","banana",1,"aap",1575869927345,"banana","swan",1,77,"TEST",1,"Graduated College",NA,"german","firstDistractor","lettuce",8518,"or lettuce","white","orange","firstDistractor","other",38,1575869853107,1.2373,1,"398547015853330"
"Sun Dec 08 2019 21:37:33 GMT-0800 (Pacific Standard Time)","1575870243546",1,1,"green_broccoli.png","white","db6fbf8e9403a2566d7e4c6e076774f60af0830b","0|1|3|2",NA,"<strong>Director</strong>: brocc","swan",1,"atp",1575869927345,"swan","lettuce",1,77,"TEST",1,"Graduated College",NA,"german","firstDistractor","broccoli",5613,"brocc","orange","green","firstDistractor","other",39,1575869853107,1.2373,1,"398547015853330"
"Sun Dec 08 2019 21:37:33 GMT-0800 (Pacific Standard Time)","1575870250083",1,1,"white_tomato.png","red","db6fbf8e9403a2566d7e4c6e076774f60af0830b","0|2|1|3",NA,"<strong>Director</strong>: white tom","tomato",1,"atp",1575869927345,"tomato","strawberry",1,77,"TEST",1,"Graduated College",NA,"german","target","swan",5726,"white tom","yellow","white","target","other",40,1575869853107,1.2373,1,"398547015853330"
"Sun Dec 08 2019 21:37:33 GMT-0800 (Pacific Standard Time)","1575870255693",1,1,"yellow_egg.png","white","db6fbf8e9403a2566d7e4c6e076774f60af0830b","0|1|2|3",NA,"<strong>Director</strong>: yel egg","egg",1,"aap",1575869927345,"egg","banana",1,77,"TEST",1,"Graduated College",NA,"german","target","strawberry",4995,"yel egg","orange","yellow","target","other",41,1575869853107,1.2373,1,"398547015853330"
"Sun Dec 08 2019 21:37:33 GMT-0800 (Pacific Standard Time)","1575870261599",1,1,"white_pumpkin.png","green","db6fbf8e9403a2566d7e4c6e076774f60af0830b","2|3|1|0",NA,"<strong>Director</strong>: pumpkin","lettuce",1,"aan",1575869927345,"broccoli","pumpkin",1,77,"TEST",1,"Graduated College",NA,"german","thirdDistractor","banana",5454,"pumpkin","white","orange","thirdDistractor","other",42,1575869853107,1.2373,1,"398547015853330"
"Sun Dec 08 2019 21:37:33 GMT-0800 (Pacific Standard Time)","1575870267211",1,1,"yellow_banana.png","yellow","db6fbf8e9403a2566d7e4c6e076774f60af0830b","1|0|2|3",NA,"<strong>Director</strong>: yel ban","banana",1,"atp",1575869927345,"banana","broccoli",1,77,"TEST",1,"Graduated College",NA,"german","secondDistractor","pumpkin",4995,"yel ban","red","orange","secondDistractor","other",43,1575869853107,1.2373,1,"398547015853330"
"Sun Dec 08 2019 21:37:33 GMT-0800 (Pacific Standard Time)","1575870273597",1,1,"red_strawberry.png","green","db6fbf8e9403a2566d7e4c6e076774f60af0830b","3|0|2|1",NA,"<strong>Director</strong>: strawb","egg",1,"atn",1575869927345,"swan","strawberry",1,77,"TEST",1,"Graduated College",NA,"german","thirdDistractor","banana",5875,"strawb","red","yellow","thirdDistractor","other",44,1575869853107,1.2373,1,"398547015853330"
"Sun Dec 08 2019 21:37:33 GMT-0800 (Pacific Standard Time)","1575870282568",1,1,"yellow_strawberry.png","red","db6fbf8e9403a2566d7e4c6e076774f60af0830b","0|1|2|3","1575870285627","<strong>Director</strong>: yell this time\n<strong>Matcher</strong>: yupp","strawberry",1,"aap",1575869927345,"strawberry","lettuce",1,77,"TEST",1,"Graduated College","yupp","german","target","egg",11293,"yell this time","orange","yellow","target","other",45,1575869853107,1.2373,1,"398547015853330"
"Sun Dec 08 2019 21:37:33 GMT-0800 (Pacific Standard Time)","1575870294987",1,1,"orange_banana.png","yellow","db6fbf8e9403a2566d7e4c6e076774f60af0830b","0|2|3|1",NA,"<strong>Director</strong>: or ban","carrot",1,"atn",1575869927345,"egg","banana",1,77,"TEST",1,"Graduated College",NA,"german","thirdDistractor","broccoli",8654,"or ban","orange","green","thirdDistractor","other",46,1575869853107,1.2373,1,"398547015853330"
"Sun Dec 08 2019 21:37:33 GMT-0800 (Pacific Standard Time)","1575870304862",1,1,"white_tomato.png","white","db6fbf8e9403a2566d7e4c6e076774f60af0830b","0|3|1|2",NA,"<strong>Director</strong>: white tom","tomato",1,"tap",1575869927345,"tomato","lettuce",1,77,"TEST",1,"Graduated College",NA,"german","secondDistractor","broccoli",9529,"white tom","green","red","secondDistractor","other",47,1575869853107,1.2373,1,"398547015853330"
"Sun Dec 08 2019 21:37:33 GMT-0800 (Pacific Standard Time)","1575870311147",1,1,"green_carrot.png","yellow","db6fbf8e9403a2566d7e4c6e076774f60af0830b","3|1|0|2",NA,"<strong>Director</strong>: green carrot","carrot",1,"aan",1575869927345,"strawberry","banana",1,77,"TEST",1,"Graduated College",NA,"german","target","swan",6094,"green carrot","orange","green","target","other",48,1575869853107,1.2373,1,"398547015853330"
"Sun Dec 08 2019 21:37:33 GMT-0800 (Pacific Standard Time)","1575870318702",1,1,"yellow_strawberry.png","green","db6fbf8e9403a2566d7e4c6e076774f60af0830b","0|1|2|3",NA,"<strong>Director</strong>: yel strawb","egg",1,"tan",1575869927345,"carrot","strawberry",1,77,"TEST",1,"Graduated College",NA,"german","thirdDistractor","pumpkin",6688,"yel strawb","yellow","white","thirdDistractor","other",49,1575869853107,1.2373,1,"398547015853330"
"Sun Dec 08 2019 21:37:33 GMT-0800 (Pacific Standard Time)","1575870326196",1,1,"green_broccoli.png","orange","db6fbf8e9403a2566d7e4c6e076774f60af0830b","0|2|3|1",NA,"<strong>Director</strong>: green brocc","pumpkin",1,"aap",1575869927345,"pumpkin","broccoli",1,77,"TEST",1,"Graduated College",NA,"german","thirdDistractor","tomato",8679,"green brocc","green","white","thirdDistractor","other",50,1575869853107,1.2373,1,"398547015853330"
"Sun Dec 08 2019 21:37:33 GMT-0800 (Pacific Standard Time)","1575870336844",1,1,"green_carrot.png","red","db6fbf8e9403a2566d7e4c6e076774f60af0830b","1|0|3|2",NA,"<strong>Director</strong>: green carrot","broccoli",1,"tap",1575869927345,"broccoli","swan",1,77,"TEST",1,"Graduated College",NA,"german","firstDistractor","carrot",8015,"green carrot","white","green","firstDistractor","other",51,1575869853107,1.2373,1,"398547015853330"
"Sun Dec 08 2019 21:37:33 GMT-0800 (Pacific Standard Time)","1575870342422",1,1,"green_lettuce.png","orange","db6fbf8e9403a2566d7e4c6e076774f60af0830b","3|1|2|0",NA,"<strong>Director</strong>: lettuce","lettuce",1,"ttn",1575869927345,"pumpkin","tomato",1,77,"TEST",1,"Graduated College",NA,"german","target","broccoli",5012,"lettuce","white","green","target","other",52,1575869853107,1.2373,1,"398547015853330"
"Sun Dec 08 2019 21:37:33 GMT-0800 (Pacific Standard Time)","1575870347528",1,1,"green_swan.png","yellow","db6fbf8e9403a2566d7e4c6e076774f60af0830b","0|2|3|1",NA,"<strong>Director</strong>: swan","swan",1,"atn",1575869927345,"strawberry","banana",1,77,"TEST",1,"Graduated College",NA,"german","target","broccoli",4667,"swan","orange","green","target","other",53,1575869853107,1.2373,1,"398547015853330"
"Sun Dec 08 2019 21:37:33 GMT-0800 (Pacific Standard Time)","1575870352911",1,1,"green_swan.png","yellow","db6fbf8e9403a2566d7e4c6e076774f60af0830b","3|0|2|1",NA,"<strong>Director</strong>: again","broccoli",1,"atn",1575869927345,"egg","swan",1,77,"TEST",1,"Graduated College",NA,"german","thirdDistractor","strawberry",4611,"again","green","red","thirdDistractor","other",54,1575869853107,1.2373,1,"398547015853330"
"Sun Dec 08 2019 21:37:33 GMT-0800 (Pacific Standard Time)","1575870358891",1,1,"red_tomato.png","orange","db6fbf8e9403a2566d7e4c6e076774f60af0830b","1|0|2|3",NA,"<strong>Director</strong>: tom","broccoli",1,"tan",1575869927345,"banana","tomato",1,77,"TEST",1,"Graduated College",NA,"german","thirdDistractor","swan",5392,"tom","red","green","thirdDistractor","other",55,1575869853107,1.2373,1,"398547015853330"
"Sun Dec 08 2019 21:37:33 GMT-0800 (Pacific Standard Time)","1575870365733",1,1,"orange_lettuce.png","green","db6fbf8e9403a2566d7e4c6e076774f60af0830b","3|2|0|1",NA,"<strong>Director</strong>: or lettuce","lettuce",1,"atp",1575869927345,"lettuce","egg",1,77,"TEST",1,"Graduated College",NA,"german","target","carrot",5978,"or lettuce","white","orange","target","other",56,1575869853107,1.2373,1,"398547015853330"
"Sun Dec 08 2019 21:37:33 GMT-0800 (Pacific Standard Time)","1575870372101",1,1,"yellow_strawberry.png","orange","db6fbf8e9403a2566d7e4c6e076774f60af0830b","3|1|2|0",NA,"<strong>Director</strong>: strawb","tomato",1,"tan",1575869927345,"pumpkin","strawberry",1,77,"TEST",1,"Graduated College",NA,"german","thirdDistractor","broccoli",6012,"strawb","yellow","red","thirdDistractor","other",57,1575869853107,1.2373,1,"398547015853330"
"Sun Dec 08 2019 21:37:33 GMT-0800 (Pacific Standard Time)","1575870378473",1,1,"yellow_corn.png","green","db6fbf8e9403a2566d7e4c6e076774f60af0830b","1|0|3|2",NA,"<strong>Director</strong>: corn","corn",1,"ttn",1575869927345,"carrot","egg",1,77,"TEST",1,"Graduated College",NA,"german","target","banana",6018,"corn","white","yellow","target","other",58,1575869853107,1.2373,1,"398547015853330"
"Sun Dec 08 2019 21:37:33 GMT-0800 (Pacific Standard Time)","1575870384543",1,1,"red_strawberry.png","green","db6fbf8e9403a2566d7e4c6e076774f60af0830b","0|2|3|1",NA,"<strong>Director</strong>: strawb","strawberry",1,"tan",1575869927345,"swan","tomato",1,77,"TEST",1,"Graduated College",NA,"german","target","corn",5296,"strawb","white","red","target","other",59,1575869853107,1.2373,1,"398547015853330"
"Sun Dec 08 2019 21:37:33 GMT-0800 (Pacific Standard Time)","1575870391379",1,1,"red_strawberry.png","red","db6fbf8e9403a2566d7e4c6e076774f60af0830b","3|0|2|1",NA,"<strong>Director</strong>: red strawb","strawberry",1,"atp",1575869927345,"strawberry","swan",1,77,"TEST",1,"Graduated College",NA,"german","secondDistractor","banana",6295,"red strawb","green","yellow","secondDistractor","other",60,1575869853107,1.2373,1,"398547015853330"
"Mon Dec 09 2019 10:19:43 GMT-0500 (Eastern Standard Time)","1575904854723",1,2,"yellow_corn.png","yellow","27b723d5c19aa5b4328503ce7a0873e6b5c7cbd2","2|1|3|0",NA,"<strong>Director</strong>: yellow corn","corn",8,"atp",1575904799862,"corn","swan",1,24,NA,2,"Graduated High School",NA,"English","secondDistractor","tomato",27100,"yellow corn","green","red","secondDistractor","male",1,1575904783602,0.271,8,"049954392557485"
"Mon Dec 09 2019 10:19:43 GMT-0500 (Eastern Standard Time)","1575904869903",1,2,"orange_carrot.png","green","27b723d5c19aa5b4328503ce7a0873e6b5c7cbd2","1|2|0|3",NA,"<strong>Director</strong>: orange carrot","carrot",8,"tap",1575904799862,"carrot","tomato",1,24,NA,2,"Graduated High School",NA,"English","target","lettuce",11990,"orange carrot","white","orange","target","male",2,1575904783602,0.271,8,"049954392557485"
"Mon Dec 09 2019 10:19:43 GMT-0500 (Eastern Standard Time)","1575904879168",1,2,"green_broccoli.png","orange","27b723d5c19aa5b4328503ce7a0873e6b5c7cbd2","1|2|0|3",NA,"<strong>Director</strong>: broccoli","banana",8,"ttp",1575904799862,"banana","broccoli",1,24,NA,2,"Graduated High School",NA,"English","thirdDistractor","corn",8508,"broccoli","green","yellow","thirdDistractor","male",3,1575904783602,0.271,8,"049954392557485"
"Mon Dec 09 2019 10:19:43 GMT-0500 (Eastern Standard Time)","1575904896348",1,2,"green_broccoli.png","white","27b723d5c19aa5b4328503ce7a0873e6b5c7cbd2","0|3|2|1",NA,"<strong>Director</strong>: broccoli","pumpkin",8,"tan",1575904799862,"egg","broccoli",1,24,NA,2,"Graduated High School",NA,"English","thirdDistractor","banana",16429,"broccoli","green","orange","thirdDistractor","male",4,1575904783602,0.271,8,"049954392557485"
"Mon Dec 09 2019 10:19:43 GMT-0500 (Eastern Standard Time)","1575904908085",1,2,"orange_banana.png","yellow","27b723d5c19aa5b4328503ce7a0873e6b5c7cbd2","1|2|3|0",NA,"<strong>Director</strong>: banana","banana",8,"aan",1575904799862,"corn","strawberry",1,24,NA,2,"Graduated High School",NA,"English","target","lettuce",11861,"banana","red","orange","target","male",5,1575904783602,0.271,8,"049954392557485"
"Mon Dec 09 2019 10:19:43 GMT-0500 (Eastern Standard Time)","1575904917823",1,2,"green_carrot.png","white","27b723d5c19aa5b4328503ce7a0873e6b5c7cbd2","0|3|1|2",NA,"<strong>Director</strong>: carrot","swan",8,"aap",1575904799862,"swan","pumpkin",1,24,NA,2,"Graduated High School",NA,"English","firstDistractor","carrot",8940,"carrot","orange","green","firstDistractor","male",6,1575904783602,0.271,8,"049954392557485"
"Mon Dec 09 2019 10:19:43 GMT-0500 (Eastern Standard Time)","1575904926359",1,2,"yellow_corn.png","white","27b723d5c19aa5b4328503ce7a0873e6b5c7cbd2","0|1|3|2",NA,"<strong>Director</strong>: corn","carrot",8,"atn",1575904799862,"pumpkin","corn",1,24,NA,2,"Graduated High School",NA,"English","thirdDistractor","lettuce",12274,"corn","yellow","green","thirdDistractor","male",7,1575904783602,0.271,8,"049954392557485"
"Mon Dec 09 2019 10:19:43 GMT-0500 (Eastern Standard Time)","1575904949805",1,2,"white_tomato.png","yellow","27b723d5c19aa5b4328503ce7a0873e6b5c7cbd2","3|2|1|0",NA,"<strong>Director</strong>: white tomato","pumpkin",8,"tan",1575904799862,"corn","tomato",1,24,NA,2,"Graduated High School",NA,"English","thirdDistractor","lettuce",18380,"white tomato","white","orange","thirdDistractor","male",8,1575904783602,0.271,8,"049954392557485"
"Mon Dec 09 2019 10:19:43 GMT-0500 (Eastern Standard Time)","1575904959941",1,2,"green_broccoli.png","white","27b723d5c19aa5b4328503ce7a0873e6b5c7cbd2","3|0|2|1",NA,"<strong>Director</strong>: broccoli","broccoli",8,"ttn",1575904799862,"pumpkin","tomato",1,24,NA,2,"Graduated High School",NA,"English","target","lettuce",10191,"broccoli","red","green","target","male",9,1575904783602,0.271,8,"049954392557485"
"Mon Dec 09 2019 10:19:43 GMT-0500 (Eastern Standard Time)","1575904974540",1,2,"white_tomato.png","red","27b723d5c19aa5b4328503ce7a0873e6b5c7cbd2","1|0|3|2",NA,"<strong>Director</strong>: tomato","tomato",8,"atn",1575904799862,"corn","lettuce",1,24,NA,2,"Graduated High School",NA,"English","target","egg",13506,"tomato","green","white","target","male",10,1575904783602,0.271,8,"049954392557485"
"Mon Dec 09 2019 10:19:43 GMT-0500 (Eastern Standard Time)","1575904989703",1,2,"red_strawberry.png","red","27b723d5c19aa5b4328503ce7a0873e6b5c7cbd2","1|3|0|2",NA,"<strong>Director</strong>: red strawberry","strawberry",8,"atp",1575904799862,"strawberry","pumpkin",1,24,NA,2,"Graduated High School",NA,"English","secondDistractor","banana",14451,"red strawberry","orange","yellow","secondDistractor","male",11,1575904783602,0.271,8,"049954392557485"
"Mon Dec 09 2019 10:19:43 GMT-0500 (Eastern Standard Time)","1575905000144",1,2,"green_lettuce.png","red","27b723d5c19aa5b4328503ce7a0873e6b5c7cbd2","3|0|1|2",NA,"<strong>Director</strong>: cabbage","broccoli",8,"ttp",1575904799862,"broccoli","banana",1,24,NA,2,"Graduated High School",NA,"English","firstDistractor","lettuce",10178,"cabbage","orange","green","firstDistractor","male",12,1575904783602,0.271,8,"049954392557485"
"Mon Dec 09 2019 10:19:43 GMT-0500 (Eastern Standard Time)","1575905011083",1,2,"yellow_egg.png","orange","27b723d5c19aa5b4328503ce7a0873e6b5c7cbd2","1|0|3|2",NA,"<strong>Director</strong>: egg","banana",8,"tap",1575904799862,"banana","broccoli",1,24,NA,2,"Graduated High School",NA,"English","firstDistractor","egg",12968,"egg","red","yellow","firstDistractor","male",13,1575904783602,0.271,8,"049954392557485"
"Mon Dec 09 2019 10:19:43 GMT-0500 (Eastern Standard Time)","1575905022424",1,2,"white_egg.png","yellow","27b723d5c19aa5b4328503ce7a0873e6b5c7cbd2","0|2|3|1",NA,"<strong>Director</strong>: egg","corn",8,"atp",1575904799862,"corn","egg",1,24,NA,2,"Graduated High School",NA,"English","thirdDistractor","strawberry",7865,"egg","white","red","thirdDistractor","male",14,1575904783602,0.271,8,"049954392557485"
"Mon Dec 09 2019 10:19:43 GMT-0500 (Eastern Standard Time)","1575905035674",1,2,"red_strawberry.png","orange","27b723d5c19aa5b4328503ce7a0873e6b5c7cbd2","3|0|2|1",NA,"<strong>Director</strong>: strawberry","strawberry",8,"tan",1575904799862,"carrot","lettuce",1,24,NA,2,"Graduated High School",NA,"English","target","broccoli",12636,"strawberry","green","red","target","male",15,1575904783602,0.271,8,"049954392557485"
"Mon Dec 09 2019 10:19:43 GMT-0500 (Eastern Standard Time)","1575905044821",1,2,"white_egg.png","white","27b723d5c19aa5b4328503ce7a0873e6b5c7cbd2","3|2|1|0",NA,"<strong>Director</strong>: white egg","egg",8,"aap",1575904799862,"egg","pumpkin",1,24,NA,2,"Graduated High School",NA,"English","secondDistractor","strawberry",8577,"white egg","orange","yellow","secondDistractor","male",16,1575904783602,0.271,8,"049954392557485"
"Mon Dec 09 2019 10:19:43 GMT-0500 (Eastern Standard Time)","1575905054835",1,2,"yellow_corn.png","red","27b723d5c19aa5b4328503ce7a0873e6b5c7cbd2","2|1|0|3",NA,"<strong>Director</strong>: yellow corn","corn",8,"ttp",1575904799862,"corn","carrot",1,24,NA,2,"Graduated High School",NA,"English","target","banana",9456,"yellow corn","orange","yellow","target","male",17,1575904783602,0.271,8,"049954392557485"
"Mon Dec 09 2019 10:19:43 GMT-0500 (Eastern Standard Time)","1575905066440",1,2,"orange_lettuce.png","green","27b723d5c19aa5b4328503ce7a0873e6b5c7cbd2","3|2|1|0",NA,"<strong>Director</strong>: orange cabbage","lettuce",8,"atp",1575904799862,"lettuce","egg",1,24,NA,2,"Graduated High School",NA,"English","target","pumpkin",11306,"orange cabbage","white","orange","target","male",18,1575904783602,0.271,8,"049954392557485"
"Mon Dec 09 2019 10:19:43 GMT-0500 (Eastern Standard Time)","1575905076029",1,2,"orange_pumpkin.png","yellow","27b723d5c19aa5b4328503ce7a0873e6b5c7cbd2","0|1|2|3",NA,"<strong>Director</strong>: pumpkin","pumpkin",8,"ttn",1575904799862,"corn","strawberry",1,24,NA,2,"Graduated High School",NA,"English","target","carrot",8832,"pumpkin","red","orange","target","male",19,1575904783602,0.271,8,"049954392557485"
"Mon Dec 09 2019 10:19:43 GMT-0500 (Eastern Standard Time)","1575905084741|||1575905084775",1,2,"red_corn.png","white","27b723d5c19aa5b4328503ce7a0873e6b5c7cbd2","0|2|3|1",NA,"<strong>Director</strong>: corn\n<strong>Director</strong>:","tomato",8,"tap",1575904799862,"tomato","egg",1,24,NA,2,"Graduated High School",NA,"English","firstDistractor","corn",9743,"corn|||","yellow","red","firstDistractor","male",20,1575904783602,0.271,8,"049954392557485"
"Mon Dec 09 2019 10:19:43 GMT-0500 (Eastern Standard Time)","1575905095664",1,2,"orange_banana.png","green","27b723d5c19aa5b4328503ce7a0873e6b5c7cbd2","2|3|1|0",NA,"<strong>Director</strong>: banana","banana",8,"atn",1575904799862,"swan","corn",1,24,NA,2,"Graduated High School",NA,"English","target","pumpkin",9231,"banana","yellow","orange","target","male",21,1575904783602,0.271,8,"049954392557485"
"Mon Dec 09 2019 10:19:43 GMT-0500 (Eastern Standard Time)","1575905104008",1,2,"green_broccoli.png","red","27b723d5c19aa5b4328503ce7a0873e6b5c7cbd2","1|3|0|2",NA,"<strong>Director</strong>: broccoli","broccoli",8,"tan",1575904799862,"corn","strawberry",1,24,NA,2,"Graduated High School",NA,"English","target","carrot",7645,"broccoli","yellow","green","target","male",22,1575904783602,0.271,8,"049954392557485"
"Mon Dec 09 2019 10:19:43 GMT-0500 (Eastern Standard Time)","1575905113745",1,2,"orange_carrot.png","green","27b723d5c19aa5b4328503ce7a0873e6b5c7cbd2","1|2|3|0",NA,"<strong>Director</strong>: carrot","carrot",8,"tan",1575904799862,"swan","tomato",1,24,NA,2,"Graduated High School",NA,"English","target","banana",9500,"carrot","white","orange","target","male",23,1575904783602,0.271,8,"049954392557485"
"Mon Dec 09 2019 10:19:43 GMT-0500 (Eastern Standard Time)","1575905122394",1,2,"green_broccoli.png","yellow","27b723d5c19aa5b4328503ce7a0873e6b5c7cbd2","2|1|3|0",NA,"<strong>Director</strong>: broccoli","corn",8,"atn",1575904799862,"banana","broccoli",1,24,NA,2,"Graduated High School",NA,"English","thirdDistractor","strawberry",7700,"broccoli","green","red","thirdDistractor","male",24,1575904783602,0.271,8,"049954392557485"
"Mon Dec 09 2019 10:19:43 GMT-0500 (Eastern Standard Time)","1575905139949",1,2,"yellow_strawberry.png","green","27b723d5c19aa5b4328503ce7a0873e6b5c7cbd2","2|1|0|3",NA,"<strong>Director</strong>: strawberry","strawberry",8,"atn",1575904799862,"broccoli","egg",1,24,NA,2,"Graduated High School",NA,"English","target","corn",17112,"strawberry","white","yellow","target","male",25,1575904783602,0.271,8,"049954392557485"
"Mon Dec 09 2019 10:19:43 GMT-0500 (Eastern Standard Time)","1575905150416",1,2,"red_corn.png","red","27b723d5c19aa5b4328503ce7a0873e6b5c7cbd2","2|1|3|0",NA,"<strong>Director</strong>: red corn","corn",8,"tap",1575904799862,"corn","lettuce",1,24,NA,2,"Graduated High School",NA,"English","secondDistractor","strawberry",12870,"red corn","green","yellow","secondDistractor","male",26,1575904783602,0.271,8,"049954392557485"
"Mon Dec 09 2019 10:19:43 GMT-0500 (Eastern Standard Time)","1575905162125",1,2,"red_tomato.png","yellow","27b723d5c19aa5b4328503ce7a0873e6b5c7cbd2","2|1|0|3",NA,"<strong>Director</strong>: tomato","lettuce",8,"atn",1575904799862,"banana","tomato",1,24,NA,2,"Graduated High School",NA,"English","thirdDistractor","pumpkin",8085,"tomato","red","orange","thirdDistractor","male",27,1575904783602,0.271,8,"049954392557485"
"Mon Dec 09 2019 10:19:43 GMT-0500 (Eastern Standard Time)","1575905172456",1,2,"green_lettuce.png","red","27b723d5c19aa5b4328503ce7a0873e6b5c7cbd2","3|1|0|2",NA,"<strong>Director</strong>: cabbage","corn",8,"tap",1575904799862,"corn","lettuce",1,24,NA,2,"Graduated High School",NA,"English","thirdDistractor","egg",9476,"cabbage","green","yellow","thirdDistractor","male",28,1575904783602,0.271,8,"049954392557485"
"Mon Dec 09 2019 10:19:43 GMT-0500 (Eastern Standard Time)","1575905180116",1,2,"red_tomato.png","white","27b723d5c19aa5b4328503ce7a0873e6b5c7cbd2","0|1|3|2",NA,"<strong>Director</strong>: tomato","broccoli",8,"tan",1575904799862,"egg","tomato",1,24,NA,2,"Graduated High School",NA,"English","thirdDistractor","swan",7200,"tomato","red","green","thirdDistractor","male",29,1575904783602,0.271,8,"049954392557485"
"Mon Dec 09 2019 10:19:43 GMT-0500 (Eastern Standard Time)","1575905190179",1,2,"red_strawberry.png","yellow","27b723d5c19aa5b4328503ce7a0873e6b5c7cbd2","3|2|1|0",NA,"<strong>Director</strong>: red strawberry","strawberry",8,"ttp",1575904799862,"strawberry","swan",1,24,NA,2,"Graduated High School",NA,"English","target","tomato",9775,"red strawberry","white","red","target","male",30,1575904783602,0.271,8,"049954392557485"
"Mon Dec 09 2019 10:19:43 GMT-0500 (Eastern Standard Time)","1575905198397",1,2,"red_corn.png","orange","27b723d5c19aa5b4328503ce7a0873e6b5c7cbd2","3|1|2|0",NA,"<strong>Director</strong>: corn","swan",8,"tan",1575904799862,"banana","corn",1,24,NA,2,"Graduated High School",NA,"English","thirdDistractor","tomato",7453,"corn","red","white","thirdDistractor","male",31,1575904783602,0.271,8,"049954392557485"
"Mon Dec 09 2019 10:19:43 GMT-0500 (Eastern Standard Time)","1575905205076",1,2,"yellow_egg.png","green","27b723d5c19aa5b4328503ce7a0873e6b5c7cbd2","2|1|0|3",NA,"<strong>Director</strong>: egg","carrot",8,"ttp",1575904799862,"carrot","egg",1,24,NA,2,"Graduated High School",NA,"English","thirdDistractor","pumpkin",7688,"egg","yellow","orange","thirdDistractor","male",32,1575904783602,0.271,8,"049954392557485"
"Mon Dec 09 2019 10:19:43 GMT-0500 (Eastern Standard Time)","1575905219517",1,2,"red_broccoli.png","white","27b723d5c19aa5b4328503ce7a0873e6b5c7cbd2","1|3|2|0",NA,"<strong>Director</strong>: broccoli","egg",8,"aan",1575904799862,"tomato","broccoli",1,24,NA,2,"Graduated High School",NA,"English","thirdDistractor","strawberry",12497,"broccoli","red","yellow","thirdDistractor","male",33,1575904783602,0.271,8,"049954392557485"
"Mon Dec 09 2019 10:19:43 GMT-0500 (Eastern Standard Time)","1575905229655",1,2,"white_pumpkin.png","green","27b723d5c19aa5b4328503ce7a0873e6b5c7cbd2","2|3|0|1",NA,"<strong>Director</strong>: pumpkin","corn",8,"aan",1575904799862,"carrot","pumpkin",1,24,NA,2,"Graduated High School",NA,"English","thirdDistractor","broccoli",9494,"pumpkin","white","red","thirdDistractor","male",34,1575904783602,0.271,8,"049954392557485"
"Mon Dec 09 2019 10:19:43 GMT-0500 (Eastern Standard Time)","1575905237044",1,2,"orange_carrot.png","red","27b723d5c19aa5b4328503ce7a0873e6b5c7cbd2","2|1|0|3",NA,"<strong>Director</strong>: carrot","carrot",8,"ttn",1575904799862,"broccoli","lettuce",1,24,NA,2,"Graduated High School",NA,"English","target","pumpkin",6696,"carrot","green","orange","target","male",35,1575904783602,0.271,8,"049954392557485"
"Mon Dec 09 2019 10:19:43 GMT-0500 (Eastern Standard Time)","1575905248427",1,2,"yellow_banana.png","yellow","27b723d5c19aa5b4328503ce7a0873e6b5c7cbd2","3|0|1|2",NA,"<strong>Director</strong>: yellow banana","banana",8,"atp",1575904799862,"banana","swan",1,24,NA,2,"Graduated High School",NA,"English","secondDistractor","carrot",10832,"yellow banana","white","orange","secondDistractor","male",36,1575904783602,0.271,8,"049954392557485"
"Mon Dec 09 2019 10:19:43 GMT-0500 (Eastern Standard Time)","1575905254997",1,2,"green_carrot.png","orange","27b723d5c19aa5b4328503ce7a0873e6b5c7cbd2","2|3|1|0",NA,"<strong>Director</strong>: carrot","carrot",8,"aan",1575904799862,"banana","egg",1,24,NA,2,"Graduated High School",NA,"English","target","swan",6576,"carrot","yellow","green","target","male",37,1575904783602,0.271,8,"049954392557485"
"Mon Dec 09 2019 10:19:43 GMT-0500 (Eastern Standard Time)","1575905264685",1,2,"red_broccoli.png","green","27b723d5c19aa5b4328503ce7a0873e6b5c7cbd2","3|0|1|2",NA,"<strong>Director</strong>: broccoli","broccoli",8,"atn",1575904799862,"swan","corn",1,24,NA,2,"Graduated High School",NA,"English","target","strawberry",8652,"broccoli","yellow","red","target","male",38,1575904783602,0.271,8,"049954392557485"
"Mon Dec 09 2019 10:19:43 GMT-0500 (Eastern Standard Time)","1575905274003",1,2,"white_tomato.png","white","27b723d5c19aa5b4328503ce7a0873e6b5c7cbd2","2|3|0|1",NA,"<strong>Director</strong>: white tomato","tomato",8,"tap",1575904799862,"tomato","lettuce",1,24,NA,2,"Graduated High School",NA,"English","secondDistractor","broccoli",8749,"white tomato","green","red","secondDistractor","male",39,1575904783602,0.271,8,"049954392557485"
"Mon Dec 09 2019 10:19:43 GMT-0500 (Eastern Standard Time)","1575905279293",1,2,"orange_carrot.png","green","27b723d5c19aa5b4328503ce7a0873e6b5c7cbd2","0|2|1|3",NA,"<strong>Director</strong>: carrot","lettuce",8,"atp",1575904799862,"lettuce","broccoli",1,24,NA,2,"Graduated High School",NA,"English","firstDistractor","carrot",5055,"carrot","red","orange","firstDistractor","male",40,1575904783602,0.271,8,"049954392557485"
"Mon Dec 09 2019 10:19:43 GMT-0500 (Eastern Standard Time)","1575905283997",1,2,"yellow_corn.png","white","27b723d5c19aa5b4328503ce7a0873e6b5c7cbd2","2|0|3|1",NA,"<strong>Director</strong>: corn","corn",8,"tan",1575904799862,"pumpkin","swan",1,24,NA,2,"Graduated High School",NA,"English","target","strawberry",3925,"corn","green","yellow","target","male",41,1575904783602,0.271,8,"049954392557485"
"Mon Dec 09 2019 10:19:43 GMT-0500 (Eastern Standard Time)","1575905291595",1,2,"orange_carrot.png","orange","27b723d5c19aa5b4328503ce7a0873e6b5c7cbd2","3|1|0|2",NA,"<strong>Director</strong>: orange carrot","carrot",8,"aap",1575904799862,"carrot","strawberry",1,24,NA,2,"Graduated High School",NA,"English","secondDistractor","swan",6882,"orange carrot","yellow","green","firstDistractor","male",42,1575904783602,0.271,8,"049954392557485"
"Mon Dec 09 2019 10:19:43 GMT-0500 (Eastern Standard Time)","1575905301121",1,2,"orange_pumpkin.png","yellow","27b723d5c19aa5b4328503ce7a0873e6b5c7cbd2","3|1|2|0",NA,"<strong>Director</strong>: pumpkin","strawberry",8,"tap",1575904799862,"strawberry","pumpkin",1,24,NA,2,"Graduated High School",NA,"English","thirdDistractor","corn",9362,"pumpkin","orange","red","thirdDistractor","male",43,1575904783602,0.271,8,"049954392557485"
"Mon Dec 09 2019 10:19:43 GMT-0500 (Eastern Standard Time)","1575905309386",1,2,"red_corn.png","yellow","27b723d5c19aa5b4328503ce7a0873e6b5c7cbd2","2|0|1|3",NA,"<strong>Director</strong>: red corn","corn",8,"aap",1575904799862,"corn","swan",1,24,NA,2,"Graduated High School",NA,"English","target","broccoli",7440,"red corn","white","red","target","male",44,1575904783602,0.271,8,"049954392557485"
"Mon Dec 09 2019 10:19:43 GMT-0500 (Eastern Standard Time)","1575905316765",1,2,"white_swan.png","red","27b723d5c19aa5b4328503ce7a0873e6b5c7cbd2","3|2|0|1",NA,"<strong>Director</strong>: swan","strawberry",8,"atp",1575904799862,"strawberry","swan",1,24,NA,2,"Graduated High School",NA,"English","thirdDistractor","corn",7088,"swan","white","yellow","thirdDistractor","male",45,1575904783602,0.271,8,"049954392557485"
"Mon Dec 09 2019 10:19:43 GMT-0500 (Eastern Standard Time)","1575905322481",1,2,"orange_banana.png","red","27b723d5c19aa5b4328503ce7a0873e6b5c7cbd2","0|1|3|2",NA,"<strong>Director</strong>: banana","strawberry",8,"aan",1575904799862,"tomato","banana",1,24,NA,2,"Graduated High School",NA,"English","thirdDistractor","egg",5071,"banana","orange","yellow","thirdDistractor","male",46,1575904783602,0.271,8,"049954392557485"
"Mon Dec 09 2019 10:19:43 GMT-0500 (Eastern Standard Time)","1575905326908",1,2,"white_swan.png","red","27b723d5c19aa5b4328503ce7a0873e6b5c7cbd2","1|2|0|3",NA,"<strong>Director</strong>: swan","lettuce",8,"atn",1575904799862,"tomato","swan",1,24,NA,2,"Graduated High School",NA,"English","thirdDistractor","carrot",3849,"swan","white","orange","thirdDistractor","male",47,1575904783602,0.271,8,"049954392557485"
"Mon Dec 09 2019 10:19:43 GMT-0500 (Eastern Standard Time)","1575905331732",1,2,"green_swan.png","red","27b723d5c19aa5b4328503ce7a0873e6b5c7cbd2","0|2|1|3",NA,"<strong>Director</strong>: swan","egg",8,"tan",1575904799862,"strawberry","swan",1,24,NA,2,"Graduated High School",NA,"English","thirdDistractor","tomato",4356,"swan","green","white","thirdDistractor","male",48,1575904783602,0.271,8,"049954392557485"
"Mon Dec 09 2019 10:19:43 GMT-0500 (Eastern Standard Time)","1575905337831",1,2,"white_pumpkin.png","orange","27b723d5c19aa5b4328503ce7a0873e6b5c7cbd2","3|0|2|1",NA,"<strong>Director</strong>: pumpkin","carrot",8,"atp",1575904799862,"carrot","pumpkin",1,24,NA,2,"Graduated High School",NA,"English","thirdDistractor","broccoli",5273,"pumpkin","white","green","thirdDistractor","male",49,1575904783602,0.271,8,"049954392557485"
"Mon Dec 09 2019 10:19:43 GMT-0500 (Eastern Standard Time)","1575905344323",1,2,"orange_lettuce.png","green","27b723d5c19aa5b4328503ce7a0873e6b5c7cbd2","3|0|1|2",NA,"<strong>Director</strong>: cabbage","lettuce",8,"aan",1575904799862,"carrot","pumpkin",1,24,NA,2,"Graduated High School",NA,"English","target","banana",6085,"cabbage","white","orange","target","male",50,1575904783602,0.271,8,"049954392557485"
"Mon Dec 09 2019 10:19:43 GMT-0500 (Eastern Standard Time)","1575905351050",1,2,"white_pumpkin.png","orange","27b723d5c19aa5b4328503ce7a0873e6b5c7cbd2","2|3|1|0",NA,"<strong>Director</strong>: pumpkin","swan",8,"atn",1575904799862,"banana","pumpkin",1,24,NA,2,"Graduated High School",NA,"English","thirdDistractor","lettuce",6492,"pumpkin","white","green","thirdDistractor","male",51,1575904783602,0.271,8,"049954392557485"
"Mon Dec 09 2019 10:19:43 GMT-0500 (Eastern Standard Time)","1575905359553",1,2,"red_broccoli.png","green","27b723d5c19aa5b4328503ce7a0873e6b5c7cbd2","0|2|3|1",NA,"<strong>Director</strong>: red broccoli","broccoli",8,"aap",1575904799862,"broccoli","pumpkin",1,24,NA,2,"Graduated High School",NA,"English","target","corn",8567,"red broccoli","orange","red","target","male",52,1575904783602,0.271,8,"049954392557485"
"Mon Dec 09 2019 10:19:43 GMT-0500 (Eastern Standard Time)","1575905369595",1,2,"red_broccoli.png","green","27b723d5c19aa5b4328503ce7a0873e6b5c7cbd2","1|3|0|2",NA,"<strong>Director</strong>: red broccoli","broccoli",8,"atp",1575904799862,"broccoli","banana",1,24,NA,2,"Graduated High School",NA,"English","target","tomato",8912,"red broccoli","orange","red","target","male",53,1575904783602,0.271,8,"049954392557485"
"Mon Dec 09 2019 10:19:43 GMT-0500 (Eastern Standard Time)","1575905378155",1,2,"white_pumpkin.png","orange","27b723d5c19aa5b4328503ce7a0873e6b5c7cbd2","2|1|0|3",NA,"<strong>Director</strong>: pumpkin","pumpkin",8,"aan",1575904799862,"banana","broccoli",1,24,NA,2,"Graduated High School",NA,"English","target","tomato",8032,"pumpkin","green","white","target","male",54,1575904783602,0.271,8,"049954392557485"
"Mon Dec 09 2019 10:19:43 GMT-0500 (Eastern Standard Time)","1575905389238",1,2,"yellow_strawberry.png","yellow","27b723d5c19aa5b4328503ce7a0873e6b5c7cbd2","3|0|2|1",NA,"<strong>Director</strong>: yellow strawberry","strawberry",8,"tap",1575904799862,"strawberry","tomato",1,24,NA,2,"Graduated High School",NA,"English","secondDistractor","broccoli",10270,"yellow strawberry","white","red","secondDistractor","male",55,1575904783602,0.271,8,"049954392557485"
"Mon Dec 09 2019 10:19:43 GMT-0500 (Eastern Standard Time)","1575905396742",1,2,"yellow_corn.png","red","27b723d5c19aa5b4328503ce7a0873e6b5c7cbd2","2|3|1|0",NA,"<strong>Director</strong>: corn","corn",8,"ttn",1575904799862,"tomato","swan",1,24,NA,2,"Graduated High School",NA,"English","target","banana",7158,"corn","green","yellow","target","male",56,1575904783602,0.271,8,"049954392557485"
"Mon Dec 09 2019 10:19:43 GMT-0500 (Eastern Standard Time)","1575905404203",1,2,"orange_carrot.png","orange","27b723d5c19aa5b4328503ce7a0873e6b5c7cbd2","1|0|2|3",NA,"<strong>Director</strong>: orange carrot","carrot",8,"atp",1575904799862,"carrot","egg",1,24,NA,2,"Graduated High School",NA,"English","secondDistractor","lettuce",7079,"orange carrot","white","green","secondDistractor","male",57,1575904783602,0.271,8,"049954392557485"
"Mon Dec 09 2019 10:19:43 GMT-0500 (Eastern Standard Time)","1575905410789",1,2,"green_broccoli.png","orange","27b723d5c19aa5b4328503ce7a0873e6b5c7cbd2","2|0|3|1",NA,"<strong>Director</strong>: broccoli","lettuce",8,"ttp",1575904799862,"lettuce","strawberry",1,24,NA,2,"Graduated High School",NA,"English","firstDistractor","broccoli",5701,"broccoli","red","green","firstDistractor","male",58,1575904783602,0.271,8,"049954392557485"
"Mon Dec 09 2019 10:19:43 GMT-0500 (Eastern Standard Time)","1575905416758",1,2,"red_strawberry.png","green","27b723d5c19aa5b4328503ce7a0873e6b5c7cbd2","1|0|3|2",NA,"<strong>Director</strong>: strawberry","broccoli",8,"atp",1575904799862,"broccoli","egg",1,24,NA,2,"Graduated High School",NA,"English","firstDistractor","strawberry",5444,"strawberry","yellow","red","firstDistractor","male",59,1575904783602,0.271,8,"049954392557485"
"Mon Dec 09 2019 10:19:43 GMT-0500 (Eastern Standard Time)","1575905423599",1,2,"white_swan.png","green","27b723d5c19aa5b4328503ce7a0873e6b5c7cbd2","2|0|3|1",NA,"<strong>Director</strong>: white swan","swan",8,"tap",1575904799862,"swan","banana",1,24,NA,2,"Graduated High School",NA,"English","target","tomato",6169,"white swan","orange","white","target","male",60,1575904783602,0.271,8,"049954392557485"
"Mon Dec 09 2019 10:18:27 GMT-0500 (Eastern Standard Time)","1575904854723",1,1,"yellow_corn.png","yellow","eb5135d8eb1e8ecb1dba550b307909e5b569cfea","2|3|0|1",NA,"<strong>Director</strong>: yellow corn","corn",8,"atp",1575904789568,"corn","swan",1,33,"n/a",1,"Graduated College",NA,"English","secondDistractor","tomato",27100,"yellow corn","green","red","secondDistractor","female",1,1575904707656,1.3652,8,"564672605413231"
"Mon Dec 09 2019 10:18:27 GMT-0500 (Eastern Standard Time)","1575904869903",1,1,"orange_carrot.png","green","eb5135d8eb1e8ecb1dba550b307909e5b569cfea","1|0|3|2",NA,"<strong>Director</strong>: orange carrot","carrot",8,"tap",1575904789568,"carrot","tomato",1,33,"n/a",1,"Graduated College",NA,"English","target","lettuce",11990,"orange carrot","white","orange","target","female",2,1575904707656,1.3652,8,"564672605413231"
"Mon Dec 09 2019 10:18:27 GMT-0500 (Eastern Standard Time)","1575904879168",1,1,"green_broccoli.png","orange","eb5135d8eb1e8ecb1dba550b307909e5b569cfea","3|1|2|0",NA,"<strong>Director</strong>: broccoli","banana",8,"ttp",1575904789568,"banana","broccoli",1,33,"n/a",1,"Graduated College",NA,"English","thirdDistractor","corn",8508,"broccoli","green","yellow","thirdDistractor","female",3,1575904707656,1.3652,8,"564672605413231"
"Mon Dec 09 2019 10:18:27 GMT-0500 (Eastern Standard Time)","1575904896348",1,1,"green_broccoli.png","white","eb5135d8eb1e8ecb1dba550b307909e5b569cfea","1|2|3|0",NA,"<strong>Director</strong>: broccoli","pumpkin",8,"tan",1575904789568,"egg","broccoli",1,33,"n/a",1,"Graduated College",NA,"English","thirdDistractor","banana",16429,"broccoli","green","orange","thirdDistractor","female",4,1575904707656,1.3652,8,"564672605413231"
"Mon Dec 09 2019 10:18:27 GMT-0500 (Eastern Standard Time)","1575904908085",1,1,"orange_banana.png","yellow","eb5135d8eb1e8ecb1dba550b307909e5b569cfea","1|3|0|2",NA,"<strong>Director</strong>: banana","banana",8,"aan",1575904789568,"corn","strawberry",1,33,"n/a",1,"Graduated College",NA,"English","target","lettuce",11861,"banana","red","orange","target","female",5,1575904707656,1.3652,8,"564672605413231"
"Mon Dec 09 2019 10:18:27 GMT-0500 (Eastern Standard Time)","1575904917823",1,1,"green_carrot.png","white","eb5135d8eb1e8ecb1dba550b307909e5b569cfea","2|1|3|0",NA,"<strong>Director</strong>: carrot","swan",8,"aap",1575904789568,"swan","pumpkin",1,33,"n/a",1,"Graduated College",NA,"English","firstDistractor","carrot",8940,"carrot","orange","green","firstDistractor","female",6,1575904707656,1.3652,8,"564672605413231"
"Mon Dec 09 2019 10:18:27 GMT-0500 (Eastern Standard Time)","1575904926359",1,1,"yellow_corn.png","white","eb5135d8eb1e8ecb1dba550b307909e5b569cfea","2|3|0|1",NA,"<strong>Director</strong>: corn","carrot",8,"atn",1575904789568,"pumpkin","corn",1,33,"n/a",1,"Graduated College",NA,"English","thirdDistractor","lettuce",12274,"corn","yellow","green","thirdDistractor","female",7,1575904707656,1.3652,8,"564672605413231"
"Mon Dec 09 2019 10:18:27 GMT-0500 (Eastern Standard Time)","1575904949805",1,1,"white_tomato.png","yellow","eb5135d8eb1e8ecb1dba550b307909e5b569cfea","3|2|0|1",NA,"<strong>Director</strong>: white tomato","pumpkin",8,"tan",1575904789568,"corn","tomato",1,33,"n/a",1,"Graduated College",NA,"English","thirdDistractor","lettuce",18380,"white tomato","white","orange","thirdDistractor","female",8,1575904707656,1.3652,8,"564672605413231"
"Mon Dec 09 2019 10:18:27 GMT-0500 (Eastern Standard Time)","1575904959941",1,1,"green_broccoli.png","white","eb5135d8eb1e8ecb1dba550b307909e5b569cfea","1|2|0|3",NA,"<strong>Director</strong>: broccoli","broccoli",8,"ttn",1575904789568,"pumpkin","tomato",1,33,"n/a",1,"Graduated College",NA,"English","target","lettuce",10191,"broccoli","red","green","target","female",9,1575904707656,1.3652,8,"564672605413231"
"Mon Dec 09 2019 10:18:27 GMT-0500 (Eastern Standard Time)","1575904974540",1,1,"white_tomato.png","red","eb5135d8eb1e8ecb1dba550b307909e5b569cfea","0|2|1|3",NA,"<strong>Director</strong>: tomato","tomato",8,"atn",1575904789568,"corn","lettuce",1,33,"n/a",1,"Graduated College",NA,"English","target","egg",13506,"tomato","green","white","target","female",10,1575904707656,1.3652,8,"564672605413231"
"Mon Dec 09 2019 10:18:27 GMT-0500 (Eastern Standard Time)","1575904989703",1,1,"red_strawberry.png","red","eb5135d8eb1e8ecb1dba550b307909e5b569cfea","0|1|3|2",NA,"<strong>Director</strong>: red strawberry","strawberry",8,"atp",1575904789568,"strawberry","pumpkin",1,33,"n/a",1,"Graduated College",NA,"English","secondDistractor","banana",14451,"red strawberry","orange","yellow","secondDistractor","female",11,1575904707656,1.3652,8,"564672605413231"
"Mon Dec 09 2019 10:18:27 GMT-0500 (Eastern Standard Time)","1575905000144",1,1,"green_lettuce.png","red","eb5135d8eb1e8ecb1dba550b307909e5b569cfea","2|1|3|0",NA,"<strong>Director</strong>: cabbage","broccoli",8,"ttp",1575904789568,"broccoli","banana",1,33,"n/a",1,"Graduated College",NA,"English","firstDistractor","lettuce",10178,"cabbage","orange","green","firstDistractor","female",12,1575904707656,1.3652,8,"564672605413231"
"Mon Dec 09 2019 10:18:27 GMT-0500 (Eastern Standard Time)","1575905011083",1,1,"yellow_egg.png","orange","eb5135d8eb1e8ecb1dba550b307909e5b569cfea","0|2|3|1",NA,"<strong>Director</strong>: egg","banana",8,"tap",1575904789568,"banana","broccoli",1,33,"n/a",1,"Graduated College",NA,"English","firstDistractor","egg",12968,"egg","red","yellow","firstDistractor","female",13,1575904707656,1.3652,8,"564672605413231"
"Mon Dec 09 2019 10:18:27 GMT-0500 (Eastern Standard Time)","1575905022424",1,1,"white_egg.png","yellow","eb5135d8eb1e8ecb1dba550b307909e5b569cfea","1|0|2|3",NA,"<strong>Director</strong>: egg","corn",8,"atp",1575904789568,"corn","egg",1,33,"n/a",1,"Graduated College",NA,"English","thirdDistractor","strawberry",7865,"egg","white","red","thirdDistractor","female",14,1575904707656,1.3652,8,"564672605413231"
"Mon Dec 09 2019 10:18:27 GMT-0500 (Eastern Standard Time)","1575905035674",1,1,"red_strawberry.png","orange","eb5135d8eb1e8ecb1dba550b307909e5b569cfea","0|1|3|2",NA,"<strong>Director</strong>: strawberry","strawberry",8,"tan",1575904789568,"carrot","lettuce",1,33,"n/a",1,"Graduated College",NA,"English","target","broccoli",12636,"strawberry","green","red","target","female",15,1575904707656,1.3652,8,"564672605413231"
"Mon Dec 09 2019 10:18:27 GMT-0500 (Eastern Standard Time)","1575905044821",1,1,"white_egg.png","white","eb5135d8eb1e8ecb1dba550b307909e5b569cfea","1|2|3|0",NA,"<strong>Director</strong>: white egg","egg",8,"aap",1575904789568,"egg","pumpkin",1,33,"n/a",1,"Graduated College",NA,"English","secondDistractor","strawberry",8577,"white egg","orange","yellow","secondDistractor","female",16,1575904707656,1.3652,8,"564672605413231"
"Mon Dec 09 2019 10:18:27 GMT-0500 (Eastern Standard Time)","1575905054835",1,1,"yellow_corn.png","red","eb5135d8eb1e8ecb1dba550b307909e5b569cfea","2|0|3|1",NA,"<strong>Director</strong>: yellow corn","corn",8,"ttp",1575904789568,"corn","carrot",1,33,"n/a",1,"Graduated College",NA,"English","target","banana",9456,"yellow corn","orange","yellow","target","female",17,1575904707656,1.3652,8,"564672605413231"
"Mon Dec 09 2019 10:18:27 GMT-0500 (Eastern Standard Time)","1575905066440",1,1,"orange_lettuce.png","green","eb5135d8eb1e8ecb1dba550b307909e5b569cfea","2|1|3|0",NA,"<strong>Director</strong>: orange cabbage","lettuce",8,"atp",1575904789568,"lettuce","egg",1,33,"n/a",1,"Graduated College",NA,"English","target","pumpkin",11306,"orange cabbage","white","orange","target","female",18,1575904707656,1.3652,8,"564672605413231"
"Mon Dec 09 2019 10:18:27 GMT-0500 (Eastern Standard Time)","1575905076029",1,1,"orange_pumpkin.png","yellow","eb5135d8eb1e8ecb1dba550b307909e5b569cfea","3|1|0|2",NA,"<strong>Director</strong>: pumpkin","pumpkin",8,"ttn",1575904789568,"corn","strawberry",1,33,"n/a",1,"Graduated College",NA,"English","target","carrot",8832,"pumpkin","red","orange","target","female",19,1575904707656,1.3652,8,"564672605413231"
"Mon Dec 09 2019 10:18:27 GMT-0500 (Eastern Standard Time)","1575905084741|||1575905084775",1,1,"red_corn.png","white","eb5135d8eb1e8ecb1dba550b307909e5b569cfea","1|2|0|3",NA,"<strong>Director</strong>: corn\n<strong>Director</strong>:","tomato",8,"tap",1575904789568,"tomato","egg",1,33,"n/a",1,"Graduated College",NA,"English","firstDistractor","corn",9743,"corn|||","yellow","red","firstDistractor","female",20,1575904707656,1.3652,8,"564672605413231"
"Mon Dec 09 2019 10:18:27 GMT-0500 (Eastern Standard Time)","1575905095664",1,1,"orange_banana.png","green","eb5135d8eb1e8ecb1dba550b307909e5b569cfea","2|3|0|1",NA,"<strong>Director</strong>: banana","banana",8,"atn",1575904789568,"swan","corn",1,33,"n/a",1,"Graduated College",NA,"English","target","pumpkin",9231,"banana","yellow","orange","target","female",21,1575904707656,1.3652,8,"564672605413231"
"Mon Dec 09 2019 10:18:27 GMT-0500 (Eastern Standard Time)","1575905104008",1,1,"green_broccoli.png","red","eb5135d8eb1e8ecb1dba550b307909e5b569cfea","2|1|3|0",NA,"<strong>Director</strong>: broccoli","broccoli",8,"tan",1575904789568,"corn","strawberry",1,33,"n/a",1,"Graduated College",NA,"English","target","carrot",7645,"broccoli","yellow","green","target","female",22,1575904707656,1.3652,8,"564672605413231"
"Mon Dec 09 2019 10:18:27 GMT-0500 (Eastern Standard Time)","1575905113745",1,1,"orange_carrot.png","green","eb5135d8eb1e8ecb1dba550b307909e5b569cfea","0|2|3|1",NA,"<strong>Director</strong>: carrot","carrot",8,"tan",1575904789568,"swan","tomato",1,33,"n/a",1,"Graduated College",NA,"English","target","banana",9500,"carrot","white","orange","target","female",23,1575904707656,1.3652,8,"564672605413231"
"Mon Dec 09 2019 10:18:27 GMT-0500 (Eastern Standard Time)","1575905122394",1,1,"green_broccoli.png","yellow","eb5135d8eb1e8ecb1dba550b307909e5b569cfea","0|1|3|2",NA,"<strong>Director</strong>: broccoli","corn",8,"atn",1575904789568,"banana","broccoli",1,33,"n/a",1,"Graduated College",NA,"English","thirdDistractor","strawberry",7700,"broccoli","green","red","thirdDistractor","female",24,1575904707656,1.3652,8,"564672605413231"
"Mon Dec 09 2019 10:18:27 GMT-0500 (Eastern Standard Time)","1575905139949",1,1,"yellow_strawberry.png","green","eb5135d8eb1e8ecb1dba550b307909e5b569cfea","1|2|0|3",NA,"<strong>Director</strong>: strawberry","strawberry",8,"atn",1575904789568,"broccoli","egg",1,33,"n/a",1,"Graduated College",NA,"English","target","corn",17112,"strawberry","white","yellow","target","female",25,1575904707656,1.3652,8,"564672605413231"
"Mon Dec 09 2019 10:18:27 GMT-0500 (Eastern Standard Time)","1575905150416",1,1,"red_corn.png","red","eb5135d8eb1e8ecb1dba550b307909e5b569cfea","1|0|2|3",NA,"<strong>Director</strong>: red corn","corn",8,"tap",1575904789568,"corn","lettuce",1,33,"n/a",1,"Graduated College",NA,"English","secondDistractor","strawberry",12870,"red corn","green","yellow","secondDistractor","female",26,1575904707656,1.3652,8,"564672605413231"
"Mon Dec 09 2019 10:18:27 GMT-0500 (Eastern Standard Time)","1575905162125",1,1,"red_tomato.png","yellow","eb5135d8eb1e8ecb1dba550b307909e5b569cfea","1|3|0|2",NA,"<strong>Director</strong>: tomato","lettuce",8,"atn",1575904789568,"banana","tomato",1,33,"n/a",1,"Graduated College",NA,"English","thirdDistractor","pumpkin",8085,"tomato","red","orange","thirdDistractor","female",27,1575904707656,1.3652,8,"564672605413231"
"Mon Dec 09 2019 10:18:27 GMT-0500 (Eastern Standard Time)","1575905172456",1,1,"green_lettuce.png","red","eb5135d8eb1e8ecb1dba550b307909e5b569cfea","2|3|1|0",NA,"<strong>Director</strong>: cabbage","corn",8,"tap",1575904789568,"corn","lettuce",1,33,"n/a",1,"Graduated College",NA,"English","thirdDistractor","egg",9476,"cabbage","green","yellow","thirdDistractor","female",28,1575904707656,1.3652,8,"564672605413231"
"Mon Dec 09 2019 10:18:27 GMT-0500 (Eastern Standard Time)","1575905180116",1,1,"red_tomato.png","white","eb5135d8eb1e8ecb1dba550b307909e5b569cfea","1|3|2|0",NA,"<strong>Director</strong>: tomato","broccoli",8,"tan",1575904789568,"egg","tomato",1,33,"n/a",1,"Graduated College",NA,"English","thirdDistractor","swan",7200,"tomato","red","green","thirdDistractor","female",29,1575904707656,1.3652,8,"564672605413231"
"Mon Dec 09 2019 10:18:27 GMT-0500 (Eastern Standard Time)","1575905190179",1,1,"red_strawberry.png","yellow","eb5135d8eb1e8ecb1dba550b307909e5b569cfea","2|3|0|1",NA,"<strong>Director</strong>: red strawberry","strawberry",8,"ttp",1575904789568,"strawberry","swan",1,33,"n/a",1,"Graduated College",NA,"English","target","tomato",9775,"red strawberry","white","red","target","female",30,1575904707656,1.3652,8,"564672605413231"
"Mon Dec 09 2019 10:18:27 GMT-0500 (Eastern Standard Time)","1575905198397",1,1,"red_corn.png","orange","eb5135d8eb1e8ecb1dba550b307909e5b569cfea","1|0|2|3",NA,"<strong>Director</strong>: corn","swan",8,"tan",1575904789568,"banana","corn",1,33,"n/a",1,"Graduated College",NA,"English","thirdDistractor","tomato",7453,"corn","red","white","thirdDistractor","female",31,1575904707656,1.3652,8,"564672605413231"
"Mon Dec 09 2019 10:18:27 GMT-0500 (Eastern Standard Time)","1575905205076",1,1,"yellow_egg.png","green","eb5135d8eb1e8ecb1dba550b307909e5b569cfea","0|1|2|3",NA,"<strong>Director</strong>: egg","carrot",8,"ttp",1575904789568,"carrot","egg",1,33,"n/a",1,"Graduated College",NA,"English","thirdDistractor","pumpkin",7688,"egg","yellow","orange","thirdDistractor","female",32,1575904707656,1.3652,8,"564672605413231"
"Mon Dec 09 2019 10:18:27 GMT-0500 (Eastern Standard Time)","1575905219517",1,1,"red_broccoli.png","white","eb5135d8eb1e8ecb1dba550b307909e5b569cfea","2|0|1|3",NA,"<strong>Director</strong>: broccoli","egg",8,"aan",1575904789568,"tomato","broccoli",1,33,"n/a",1,"Graduated College",NA,"English","thirdDistractor","strawberry",12497,"broccoli","red","yellow","thirdDistractor","female",33,1575904707656,1.3652,8,"564672605413231"
"Mon Dec 09 2019 10:18:27 GMT-0500 (Eastern Standard Time)","1575905229655",1,1,"white_pumpkin.png","green","eb5135d8eb1e8ecb1dba550b307909e5b569cfea","2|3|1|0",NA,"<strong>Director</strong>: pumpkin","corn",8,"aan",1575904789568,"carrot","pumpkin",1,33,"n/a",1,"Graduated College",NA,"English","thirdDistractor","broccoli",9494,"pumpkin","white","red","thirdDistractor","female",34,1575904707656,1.3652,8,"564672605413231"
"Mon Dec 09 2019 10:18:27 GMT-0500 (Eastern Standard Time)","1575905237044",1,1,"orange_carrot.png","red","eb5135d8eb1e8ecb1dba550b307909e5b569cfea","1|0|3|2",NA,"<strong>Director</strong>: carrot","carrot",8,"ttn",1575904789568,"broccoli","lettuce",1,33,"n/a",1,"Graduated College",NA,"English","target","pumpkin",6696,"carrot","green","orange","target","female",35,1575904707656,1.3652,8,"564672605413231"
"Mon Dec 09 2019 10:18:27 GMT-0500 (Eastern Standard Time)","1575905248427",1,1,"yellow_banana.png","yellow","eb5135d8eb1e8ecb1dba550b307909e5b569cfea","2|1|0|3",NA,"<strong>Director</strong>: yellow banana","banana",8,"atp",1575904789568,"banana","swan",1,33,"n/a",1,"Graduated College",NA,"English","secondDistractor","carrot",10832,"yellow banana","white","orange","secondDistractor","female",36,1575904707656,1.3652,8,"564672605413231"
"Mon Dec 09 2019 10:18:27 GMT-0500 (Eastern Standard Time)","1575905254997",1,1,"green_carrot.png","orange","eb5135d8eb1e8ecb1dba550b307909e5b569cfea","3|0|2|1",NA,"<strong>Director</strong>: carrot","carrot",8,"aan",1575904789568,"banana","egg",1,33,"n/a",1,"Graduated College",NA,"English","target","swan",6576,"carrot","yellow","green","target","female",37,1575904707656,1.3652,8,"564672605413231"
"Mon Dec 09 2019 10:18:27 GMT-0500 (Eastern Standard Time)","1575905264685",1,1,"red_broccoli.png","green","eb5135d8eb1e8ecb1dba550b307909e5b569cfea","2|0|3|1",NA,"<strong>Director</strong>: broccoli","broccoli",8,"atn",1575904789568,"swan","corn",1,33,"n/a",1,"Graduated College",NA,"English","target","strawberry",8652,"broccoli","yellow","red","target","female",38,1575904707656,1.3652,8,"564672605413231"
"Mon Dec 09 2019 10:18:27 GMT-0500 (Eastern Standard Time)","1575905274003",1,1,"white_tomato.png","white","eb5135d8eb1e8ecb1dba550b307909e5b569cfea","2|0|3|1",NA,"<strong>Director</strong>: white tomato","tomato",8,"tap",1575904789568,"tomato","lettuce",1,33,"n/a",1,"Graduated College",NA,"English","secondDistractor","broccoli",8749,"white tomato","green","red","secondDistractor","female",39,1575904707656,1.3652,8,"564672605413231"
"Mon Dec 09 2019 10:18:27 GMT-0500 (Eastern Standard Time)","1575905279293",1,1,"orange_carrot.png","green","eb5135d8eb1e8ecb1dba550b307909e5b569cfea","0|1|3|2",NA,"<strong>Director</strong>: carrot","lettuce",8,"atp",1575904789568,"lettuce","broccoli",1,33,"n/a",1,"Graduated College",NA,"English","firstDistractor","carrot",5055,"carrot","red","orange","firstDistractor","female",40,1575904707656,1.3652,8,"564672605413231"
"Mon Dec 09 2019 10:18:27 GMT-0500 (Eastern Standard Time)","1575905283997",1,1,"yellow_corn.png","white","eb5135d8eb1e8ecb1dba550b307909e5b569cfea","2|0|1|3",NA,"<strong>Director</strong>: corn","corn",8,"tan",1575904789568,"pumpkin","swan",1,33,"n/a",1,"Graduated College",NA,"English","target","strawberry",3925,"corn","green","yellow","target","female",41,1575904707656,1.3652,8,"564672605413231"
"Mon Dec 09 2019 10:18:27 GMT-0500 (Eastern Standard Time)","1575905291595",1,1,"orange_carrot.png","orange","eb5135d8eb1e8ecb1dba550b307909e5b569cfea","0|1|2|3",NA,"<strong>Director</strong>: orange carrot","carrot",8,"aap",1575904789568,"carrot","strawberry",1,33,"n/a",1,"Graduated College",NA,"English","secondDistractor","swan",6882,"orange carrot","yellow","green","firstDistractor","female",42,1575904707656,1.3652,8,"564672605413231"
"Mon Dec 09 2019 10:18:27 GMT-0500 (Eastern Standard Time)","1575905301121",1,1,"orange_pumpkin.png","yellow","eb5135d8eb1e8ecb1dba550b307909e5b569cfea","2|3|0|1",NA,"<strong>Director</strong>: pumpkin","strawberry",8,"tap",1575904789568,"strawberry","pumpkin",1,33,"n/a",1,"Graduated College",NA,"English","thirdDistractor","corn",9362,"pumpkin","orange","red","thirdDistractor","female",43,1575904707656,1.3652,8,"564672605413231"
"Mon Dec 09 2019 10:18:27 GMT-0500 (Eastern Standard Time)","1575905309386",1,1,"red_corn.png","yellow","eb5135d8eb1e8ecb1dba550b307909e5b569cfea","3|1|2|0",NA,"<strong>Director</strong>: red corn","corn",8,"aap",1575904789568,"corn","swan",1,33,"n/a",1,"Graduated College",NA,"English","target","broccoli",7440,"red corn","white","red","target","female",44,1575904707656,1.3652,8,"564672605413231"
"Mon Dec 09 2019 10:18:27 GMT-0500 (Eastern Standard Time)","1575905316765",1,1,"white_swan.png","red","eb5135d8eb1e8ecb1dba550b307909e5b569cfea","3|0|1|2",NA,"<strong>Director</strong>: swan","strawberry",8,"atp",1575904789568,"strawberry","swan",1,33,"n/a",1,"Graduated College",NA,"English","thirdDistractor","corn",7088,"swan","white","yellow","thirdDistractor","female",45,1575904707656,1.3652,8,"564672605413231"
"Mon Dec 09 2019 10:18:27 GMT-0500 (Eastern Standard Time)","1575905322481",1,1,"orange_banana.png","red","eb5135d8eb1e8ecb1dba550b307909e5b569cfea","0|2|1|3",NA,"<strong>Director</strong>: banana","strawberry",8,"aan",1575904789568,"tomato","banana",1,33,"n/a",1,"Graduated College",NA,"English","thirdDistractor","egg",5071,"banana","orange","yellow","thirdDistractor","female",46,1575904707656,1.3652,8,"564672605413231"
"Mon Dec 09 2019 10:18:27 GMT-0500 (Eastern Standard Time)","1575905326908",1,1,"white_swan.png","red","eb5135d8eb1e8ecb1dba550b307909e5b569cfea","0|3|1|2",NA,"<strong>Director</strong>: swan","lettuce",8,"atn",1575904789568,"tomato","swan",1,33,"n/a",1,"Graduated College",NA,"English","thirdDistractor","carrot",3849,"swan","white","orange","thirdDistractor","female",47,1575904707656,1.3652,8,"564672605413231"
"Mon Dec 09 2019 10:18:27 GMT-0500 (Eastern Standard Time)","1575905331732",1,1,"green_swan.png","red","eb5135d8eb1e8ecb1dba550b307909e5b569cfea","3|1|2|0",NA,"<strong>Director</strong>: swan","egg",8,"tan",1575904789568,"strawberry","swan",1,33,"n/a",1,"Graduated College",NA,"English","thirdDistractor","tomato",4356,"swan","green","white","thirdDistractor","female",48,1575904707656,1.3652,8,"564672605413231"
"Mon Dec 09 2019 10:18:27 GMT-0500 (Eastern Standard Time)","1575905337831",1,1,"white_pumpkin.png","orange","eb5135d8eb1e8ecb1dba550b307909e5b569cfea","0|1|2|3",NA,"<strong>Director</strong>: pumpkin","carrot",8,"atp",1575904789568,"carrot","pumpkin",1,33,"n/a",1,"Graduated College",NA,"English","thirdDistractor","broccoli",5273,"pumpkin","white","green","thirdDistractor","female",49,1575904707656,1.3652,8,"564672605413231"
"Mon Dec 09 2019 10:18:27 GMT-0500 (Eastern Standard Time)","1575905344323",1,1,"orange_lettuce.png","green","eb5135d8eb1e8ecb1dba550b307909e5b569cfea","3|0|2|1",NA,"<strong>Director</strong>: cabbage","lettuce",8,"aan",1575904789568,"carrot","pumpkin",1,33,"n/a",1,"Graduated College",NA,"English","target","banana",6085,"cabbage","white","orange","target","female",50,1575904707656,1.3652,8,"564672605413231"
"Mon Dec 09 2019 10:18:27 GMT-0500 (Eastern Standard Time)","1575905351050",1,1,"white_pumpkin.png","orange","eb5135d8eb1e8ecb1dba550b307909e5b569cfea","1|3|0|2",NA,"<strong>Director</strong>: pumpkin","swan",8,"atn",1575904789568,"banana","pumpkin",1,33,"n/a",1,"Graduated College",NA,"English","thirdDistractor","lettuce",6492,"pumpkin","white","green","thirdDistractor","female",51,1575904707656,1.3652,8,"564672605413231"
"Mon Dec 09 2019 10:18:27 GMT-0500 (Eastern Standard Time)","1575905359553",1,1,"red_broccoli.png","green","eb5135d8eb1e8ecb1dba550b307909e5b569cfea","0|1|3|2",NA,"<strong>Director</strong>: red broccoli","broccoli",8,"aap",1575904789568,"broccoli","pumpkin",1,33,"n/a",1,"Graduated College",NA,"English","target","corn",8567,"red broccoli","orange","red","target","female",52,1575904707656,1.3652,8,"564672605413231"
"Mon Dec 09 2019 10:18:27 GMT-0500 (Eastern Standard Time)","1575905369595",1,1,"red_broccoli.png","green","eb5135d8eb1e8ecb1dba550b307909e5b569cfea","0|3|1|2",NA,"<strong>Director</strong>: red broccoli","broccoli",8,"atp",1575904789568,"broccoli","banana",1,33,"n/a",1,"Graduated College",NA,"English","target","tomato",8912,"red broccoli","orange","red","target","female",53,1575904707656,1.3652,8,"564672605413231"
"Mon Dec 09 2019 10:18:27 GMT-0500 (Eastern Standard Time)","1575905378155",1,1,"white_pumpkin.png","orange","eb5135d8eb1e8ecb1dba550b307909e5b569cfea","3|2|1|0",NA,"<strong>Director</strong>: pumpkin","pumpkin",8,"aan",1575904789568,"banana","broccoli",1,33,"n/a",1,"Graduated College",NA,"English","target","tomato",8032,"pumpkin","green","white","target","female",54,1575904707656,1.3652,8,"564672605413231"
"Mon Dec 09 2019 10:18:27 GMT-0500 (Eastern Standard Time)","1575905389238",1,1,"yellow_strawberry.png","yellow","eb5135d8eb1e8ecb1dba550b307909e5b569cfea","0|3|1|2",NA,"<strong>Director</strong>: yellow strawberry","strawberry",8,"tap",1575904789568,"strawberry","tomato",1,33,"n/a",1,"Graduated College",NA,"English","secondDistractor","broccoli",10270,"yellow strawberry","white","red","secondDistractor","female",55,1575904707656,1.3652,8,"564672605413231"
