"startDate","speaker_timestamps","glb_chain","glb_variant","selected_image","contrastColor","participant_id","color_indices","listener_timestamps","conversation","targetType","glb_realization","condition","endTime","contrastType","distractorType","chain","age","comments","variant","education","listener_chat","languages","selected_type","compType","RT","speaker_chat","distractorColor","targetcompColor","intended_target","gender","trial_number","startTime","timeSpent","realization","anon_worker_id"
"Mon Dec 16 2019 11:19:33 GMT-0500 (Eastern Standard Time)","1576513817069",1,2,"green_lettuce.png","orange","ffc91014a76fc4160aa75bcad1e503f2c77f0139","2|1|0|3","1576513747641","<strong>Matcher</strong>: hi\n<strong>Director</strong>: Hi! The object is the base of a salad.","pumpkin",1,"atn",1576513594395,"banana","lettuce",1,69,"none",2,"Graduated College","hi","English","thirdDistractor","egg",114464,"Hi! The object is the base of a salad.","green","white","thirdDistractor","female",1,1576513173782,7.01021666666667,1,"833746800427623"
"Mon Dec 16 2019 11:19:33 GMT-0500 (Eastern Standard Time)","1576513918353",1,2,"yellow_banana.png","white","ffc91014a76fc4160aa75bcad1e503f2c77f0139","3|1|2|0","1576513883739","<strong>Matcher</strong>: Do I just click on the object or do I need to send you a message also?\n<strong>Director</strong>: Just click on it I think. The new object is yellow and monkey's eat them.","banana",1,"ttn",1576513594395,"swan","carrot",1,69,"none",2,"Graduated College","Do I just click on the object or do I need to send you a message also?","English","target","corn",81935,"Just click on it I think. The new object is yellow and monkey's eat them.","green","yellow","target","female",2,1576513173782,7.01021666666667,1,"833746800427623"
"Mon Dec 16 2019 11:19:33 GMT-0500 (Eastern Standard Time)","1576513989971",1,2,"white_pumpkin.png","green","ffc91014a76fc4160aa75bcad1e503f2c77f0139","2|0|3|1",NA,"<strong>Director</strong>: The new one is something we use at Halloween except it's white.","pumpkin",1,"aan",1576513594395,"lettuce","corn",1,69,"none",2,"Graduated College",NA,"English","target","tomato",69519,"The new one is something we use at Halloween except it's white.","yellow","white","target","female",3,1576513173782,7.01021666666667,1,"833746800427623"
"Mon Dec 16 2019 11:19:33 GMT-0500 (Eastern Standard Time)","1576514046075",1,2,"yellow_egg.png","yellow","ffc91014a76fc4160aa75bcad1e503f2c77f0139","0|3|1|2",NA,"<strong>Director</strong>: The object is yellow","egg",1,"tap",1576513594395,"egg","strawberry",1,69,"none",2,"Graduated College",NA,"English","secondDistractor","pumpkin",46299,"The object is yellow","red","white","secondDistractor","female",4,1576513173782,7.01021666666667,1,"833746800427623"
"Mon Dec 16 2019 11:19:33 GMT-0500 (Eastern Standard Time)","1576514068271",1,2,"yellow_corn.png","orange","ffc91014a76fc4160aa75bcad1e503f2c77f0139","3|0|2|1",NA,"<strong>Director</strong>: The object is something on a cob","banana",1,"ttp",1576513594395,"banana","swan",1,69,"none",2,"Graduated College",NA,"English","firstDistractor","corn",35233,"The object is something on a cob","green","yellow","firstDistractor","female",5,1576513173782,7.01021666666667,1,"833746800427623"
"Mon Dec 16 2019 11:19:33 GMT-0500 (Eastern Standard Time)","1576514104091",1,2,"red_broccoli.png","green","ffc91014a76fc4160aa75bcad1e503f2c77f0139","0|1|2|3",NA,"<strong>Director</strong>: The object is red and it's usually green","broccoli",1,"atp",1576513594395,"broccoli","egg",1,69,"none",2,"Graduated College",NA,"English","target","strawberry",21714,"The object is red and it's usually green","yellow","red","target","female",6,1576513173782,7.01021666666667,1,"833746800427623"
"Mon Dec 16 2019 11:19:33 GMT-0500 (Eastern Standard Time)","1576514123318",1,2,"green_broccoli.png","green","ffc91014a76fc4160aa75bcad1e503f2c77f0139","0|2|3|1",NA,"<strong>Director</strong>: The object is green","broccoli",1,"atp",1576513594395,"broccoli","banana",1,69,"none",2,"Graduated College",NA,"English","secondDistractor","tomato",24800,"The object is green","orange","red","secondDistractor","female",7,1576513173782,7.01021666666667,1,"833746800427623"
"Mon Dec 16 2019 11:19:33 GMT-0500 (Eastern Standard Time)","1576514153970",1,2,"orange_lettuce.png","green","ffc91014a76fc4160aa75bcad1e503f2c77f0139","0|1|2|3",NA,"<strong>Director</strong>: The object is orange and used as a salad base","tomato",1,"tan",1576513594395,"carrot","lettuce",1,69,"none",2,"Graduated College",NA,"English","thirdDistractor","corn",26338,"The object is orange and used as a salad base","orange","red","thirdDistractor","female",8,1576513173782,7.01021666666667,1,"833746800427623"
"Mon Dec 16 2019 11:19:33 GMT-0500 (Eastern Standard Time)","1576514172041",1,2,"red_broccoli.png","red","ffc91014a76fc4160aa75bcad1e503f2c77f0139","1|3|2|0",NA,"<strong>Director</strong>: Its red and normally green","broccoli",1,"tap",1576513594395,"broccoli","tomato",1,69,"none",2,"Graduated College",NA,"English","secondDistractor","swan",15415,"Its red and normally green","white","green","secondDistractor","female",9,1576513173782,7.01021666666667,1,"833746800427623"
"Mon Dec 16 2019 11:19:33 GMT-0500 (Eastern Standard Time)","1576514189187",1,2,"green_carrot.png","orange","ffc91014a76fc4160aa75bcad1e503f2c77f0139","1|2|0|3",NA,"<strong>Director</strong>: Its green and usually orange","carrot",1,"aap",1576513594395,"carrot","pumpkin",1,69,"none",2,"Graduated College",NA,"English","target","swan",25706,"Its green and usually orange","white","green","target","female",10,1576513173782,7.01021666666667,1,"833746800427623"
"Mon Dec 16 2019 11:19:33 GMT-0500 (Eastern Standard Time)","1576514240944",1,2,"yellow_egg.png","white","ffc91014a76fc4160aa75bcad1e503f2c77f0139","2|3|1|0",NA,"<strong>Director</strong>: Its yellow with NO green","egg",1,"aan",1576513594395,"pumpkin","carrot",1,69,"none",2,"Graduated College",NA,"English","target","strawberry",43591,"Its yellow with NO green","orange","yellow","target","female",11,1576513173782,7.01021666666667,1,"833746800427623"
"Mon Dec 16 2019 11:19:33 GMT-0500 (Eastern Standard Time)","1576514257808",1,2,"white_swan.png","red","ffc91014a76fc4160aa75bcad1e503f2c77f0139","2|0|3|1",NA,"<strong>Director</strong>: Its a bird","swan",1,"ttn",1576513594395,"tomato","lettuce",1,69,"none",2,"Graduated College",NA,"English","target","egg",13969,"Its a bird","orange","white","target","female",12,1576513173782,7.01021666666667,1,"833746800427623"
"Mon Dec 16 2019 11:19:33 GMT-0500 (Eastern Standard Time)","1576514279032",1,2,"green_broccoli.png","red","ffc91014a76fc4160aa75bcad1e503f2c77f0139","3|0|1|2",NA,"<strong>Director</strong>: Green and looks like a tree","broccoli",1,"tan",1576513594395,"corn","egg",1,69,"none",2,"Graduated College",NA,"English","target","carrot",34698,"Green and looks like a tree","white","green","target","female",13,1576513173782,7.01021666666667,1,"833746800427623"
"Mon Dec 16 2019 11:19:33 GMT-0500 (Eastern Standard Time)","1576514306264",1,2,"white_swan.png","red","ffc91014a76fc4160aa75bcad1e503f2c77f0139","3|0|1|2",NA,"<strong>Director</strong>: Bird","pumpkin",1,"tan",1576513594395,"tomato","swan",1,69,"none",2,"Graduated College",NA,"English","thirdDistractor","banana",12978,"Bird","white","orange","thirdDistractor","female",14,1576513173782,7.01021666666667,1,"833746800427623"
"Mon Dec 16 2019 11:19:33 GMT-0500 (Eastern Standard Time)","1576514321135",1,2,"white_tomato.png","green","ffc91014a76fc4160aa75bcad1e503f2c77f0139","3|0|1|2",NA,"<strong>Director</strong>: Whie and usually red","tomato",1,"atn",1576513594395,"carrot","lettuce",1,69,"none",2,"Graduated College",NA,"English","target","swan",17120,"Whie and usually red","orange","white","target","female",15,1576513173782,7.01021666666667,1,"833746800427623"
"Mon Dec 16 2019 11:19:33 GMT-0500 (Eastern Standard Time)","1576514340791",1,2,"white_swan.png","white","ffc91014a76fc4160aa75bcad1e503f2c77f0139","1|2|3|0",NA,"<strong>Director</strong>: Lower right","swan",1,"aap",1576513594395,"swan","strawberry",1,69,"none",2,"Graduated College",NA,"English","secondDistractor","carrot",18981,"Lower right","red","green","firstDistractor","female",16,1576513173782,7.01021666666667,1,"833746800427623"
"Mon Dec 16 2019 11:19:33 GMT-0500 (Eastern Standard Time)","1576514361199",1,2,"white_tomato.png","green","ffc91014a76fc4160aa75bcad1e503f2c77f0139","2|0|3|1",NA,"<strong>Director</strong>: White and normally red","carrot",1,"tan",1576513594395,"swan","tomato",1,69,"none",2,"Graduated College",NA,"English","thirdDistractor","banana",19727,"White and normally red","white","orange","thirdDistractor","female",17,1576513173782,7.01021666666667,1,"833746800427623"
"Mon Dec 16 2019 11:19:33 GMT-0500 (Eastern Standard Time)","1576514382567",1,2,"white_tomato.png","yellow","ffc91014a76fc4160aa75bcad1e503f2c77f0139","3|1|2|0",NA,"<strong>Director</strong>: Same as last one","broccoli",1,"atn",1576513594395,"egg","tomato",1,69,"none",2,"Graduated College",NA,"English","thirdDistractor","strawberry",21856,"Same as last one","white","red","thirdDistractor","female",18,1576513173782,7.01021666666667,1,"833746800427623"
"Mon Dec 16 2019 11:19:33 GMT-0500 (Eastern Standard Time)","1576514400894",1,2,"yellow_strawberry.png","orange","ffc91014a76fc4160aa75bcad1e503f2c77f0139","0|1|3|2",NA,"<strong>Director</strong>: yellow and green","tomato",1,"tan",1576513594395,"carrot","strawberry",1,69,"none",2,"Graduated College",NA,"English","thirdDistractor","broccoli",18584,"yellow and green","yellow","red","thirdDistractor","female",19,1576513173782,7.01021666666667,1,"833746800427623"
"Mon Dec 16 2019 11:19:33 GMT-0500 (Eastern Standard Time)","1576514419557",1,2,"orange_banana.png","white","ffc91014a76fc4160aa75bcad1e503f2c77f0139","0|3|1|2",NA,"<strong>Director</strong>: orange, should be yellow","swan",1,"atp",1576513594395,"swan","banana",1,69,"none",2,"Graduated College",NA,"English","thirdDistractor","lettuce",14300,"orange, should be yellow","orange","green","thirdDistractor","female",20,1576513173782,7.01021666666667,1,"833746800427623"
"Mon Dec 16 2019 11:19:33 GMT-0500 (Eastern Standard Time)","1576514433109",1,2,"red_broccoli.png","white","ffc91014a76fc4160aa75bcad1e503f2c77f0139","3|1|2|0",NA,"<strong>Director</strong>: red, should be green","tomato",1,"tap",1576513594395,"tomato","swan",1,69,"none",2,"Graduated College",NA,"English","firstDistractor","broccoli",12463,"red, should be green","green","red","firstDistractor","female",21,1576513173782,7.01021666666667,1,"833746800427623"
"Mon Dec 16 2019 11:19:33 GMT-0500 (Eastern Standard Time)","1576514448213",1,2,"green_lettuce.png","green","ffc91014a76fc4160aa75bcad1e503f2c77f0139","0|1|2|3",NA,"<strong>Director</strong>: make a salad with it","lettuce",1,"atp",1576513594395,"lettuce","corn",1,69,"none",2,"Graduated College",NA,"English","secondDistractor","carrot",15334,"make a salad with it","yellow","orange","secondDistractor","female",22,1576513173782,7.01021666666667,1,"833746800427623"
"Mon Dec 16 2019 11:19:33 GMT-0500 (Eastern Standard Time)","1576514465133",1,2,"white_egg.png","white","ffc91014a76fc4160aa75bcad1e503f2c77f0139","3|1|0|2",NA,"<strong>Director</strong>: it comes from a chicken","egg",1,"atp",1576513594395,"egg","swan",1,69,"none",2,"Graduated College",NA,"English","secondDistractor","banana",20659,"it comes from a chicken","green","yellow","secondDistractor","female",23,1576513173782,7.01021666666667,1,"833746800427623"
"Mon Dec 16 2019 11:19:33 GMT-0500 (Eastern Standard Time)","1576514486052",1,2,"yellow_strawberry.png","white","ffc91014a76fc4160aa75bcad1e503f2c77f0139","1|2|3|0",NA,"<strong>Director</strong>: yellow, should be red","egg",1,"aap",1576513594395,"egg","tomato",1,69,"none",2,"Graduated College",NA,"English","firstDistractor","strawberry",22033,"yellow, should be red","red","yellow","firstDistractor","female",24,1576513173782,7.01021666666667,1,"833746800427623"
"Mon Dec 16 2019 11:19:33 GMT-0500 (Eastern Standard Time)","1576514510156",1,2,"orange_lettuce.png","orange","ffc91014a76fc4160aa75bcad1e503f2c77f0139","2|1|3|0",NA,"<strong>Director</strong>: orange, should be green","lettuce",1,"tap",1576513594395,"lettuce","corn",1,69,"none",2,"Graduated College",NA,"English","secondDistractor","carrot",20261,"orange, should be green","yellow","green","secondDistractor","female",25,1576513173782,7.01021666666667,1,"833746800427623"
"Mon Dec 16 2019 11:19:33 GMT-0500 (Eastern Standard Time)","1576514525516",1,2,"red_strawberry.png","yellow","ffc91014a76fc4160aa75bcad1e503f2c77f0139","0|1|2|3",NA,"<strong>Director</strong>: red","egg",1,"tap",1576513594395,"egg","strawberry",1,69,"none",2,"Graduated College",NA,"English","thirdDistractor","tomato",10684,"red","red","white","thirdDistractor","female",26,1576513173782,7.01021666666667,1,"833746800427623"
"Mon Dec 16 2019 11:19:33 GMT-0500 (Eastern Standard Time)","1576514534012",1,2,"yellow_banana.png","white","ffc91014a76fc4160aa75bcad1e503f2c77f0139","2|3|0|1",NA,"<strong>Director</strong>: yellow","strawberry",1,"tan",1576513594395,"swan","banana",1,69,"none",2,"Graduated College",NA,"English","thirdDistractor","corn",8384,"yellow","yellow","red","thirdDistractor","female",27,1576513173782,7.01021666666667,1,"833746800427623"
"Mon Dec 16 2019 11:19:33 GMT-0500 (Eastern Standard Time)","1576514542300",1,2,"white_swan.png","orange","ffc91014a76fc4160aa75bcad1e503f2c77f0139","2|3|1|0",NA,"<strong>Director</strong>: bird","swan",1,"tan",1576513594395,"carrot","strawberry",1,69,"none",2,"Graduated College",NA,"English","target","tomato",6660,"bird","yellow","white","target","female",28,1576513173782,7.01021666666667,1,"833746800427623"
"Mon Dec 16 2019 11:19:33 GMT-0500 (Eastern Standard Time)","1576514558148",1,2,"green_lettuce.png","red","ffc91014a76fc4160aa75bcad1e503f2c77f0139","0|2|3|1",NA,"<strong>Director</strong>: make a salad with it","broccoli",1,"ttp",1576513594395,"broccoli","banana",1,69,"none",2,"Graduated College",NA,"English","firstDistractor","lettuce",16679,"make a salad with it","yellow","green","firstDistractor","female",29,1576513173782,7.01021666666667,1,"833746800427623"
"Mon Dec 16 2019 11:19:33 GMT-0500 (Eastern Standard Time)","1576514568980",1,2,"orange_pumpkin.png","yellow","ffc91014a76fc4160aa75bcad1e503f2c77f0139","2|0|1|3",NA,"<strong>Director</strong>: halloween","pumpkin",1,"ttn",1576513594395,"strawberry","swan",1,69,"none",2,"Graduated College",NA,"English","target","carrot",9333,"halloween","white","orange","target","female",30,1576513173782,7.01021666666667,1,"833746800427623"
"Mon Dec 16 2019 11:19:33 GMT-0500 (Eastern Standard Time)","1576514583932",1,2,"white_pumpkin.png","white","ffc91014a76fc4160aa75bcad1e503f2c77f0139","3|2|0|1",NA,"<strong>Director</strong>: halloween except white","pumpkin",1,"tap",1576513594395,"pumpkin","tomato",1,69,"none",2,"Graduated College",NA,"English","secondDistractor","banana",15124,"halloween except white","red","orange","secondDistractor","female",31,1576513173782,7.01021666666667,1,"833746800427623"
"Mon Dec 16 2019 11:19:33 GMT-0500 (Eastern Standard Time)","1576514601004",1,2,"red_strawberry.png","yellow","ffc91014a76fc4160aa75bcad1e503f2c77f0139","2|3|0|1",NA,"<strong>Director</strong>: red sweet fruit, berry","strawberry",1,"ttp",1576513594395,"strawberry","carrot",1,69,"none",2,"Graduated College",NA,"English","target","tomato",20060,"red sweet fruit, berry","green","red","target","female",32,1576513173782,7.01021666666667,1,"833746800427623"
"Mon Dec 16 2019 11:19:33 GMT-0500 (Eastern Standard Time)","1576514622483",1,2,"orange_carrot.png","yellow","ffc91014a76fc4160aa75bcad1e503f2c77f0139","0|1|3|2",NA,"<strong>Director</strong>: rabbits eat it","carrot",1,"tan",1576513594395,"egg","tomato",1,69,"none",2,"Graduated College",NA,"English","target","lettuce",17038,"rabbits eat it","white","orange","target","female",33,1576513173782,7.01021666666667,1,"833746800427623"
"Mon Dec 16 2019 11:19:33 GMT-0500 (Eastern Standard Time)","1576514632611",1,2,"green_swan.png","white","ffc91014a76fc4160aa75bcad1e503f2c77f0139","0|1|2|3",NA,"<strong>Director</strong>: green bird","swan",1,"atp",1576513594395,"swan","carrot",1,69,"none",2,"Graduated College",NA,"English","target","broccoli",9027,"green bird","orange","green","target","female",34,1576513173782,7.01021666666667,1,"833746800427623"
"Mon Dec 16 2019 11:19:33 GMT-0500 (Eastern Standard Time)","1576514644547",1,2,"red_strawberry.png","yellow","ffc91014a76fc4160aa75bcad1e503f2c77f0139","1|3|0|2",NA,"<strong>Director</strong>: red berry","strawberry",1,"ttn",1576513594395,"banana","broccoli",1,69,"none",2,"Graduated College",NA,"English","target","tomato",11465,"red berry","green","red","target","female",35,1576513173782,7.01021666666667,1,"833746800427623"
"Mon Dec 16 2019 11:19:33 GMT-0500 (Eastern Standard Time)","1576514654323",1,2,"green_swan.png","orange","ffc91014a76fc4160aa75bcad1e503f2c77f0139","1|3|2|0",NA,"<strong>Director</strong>: green bird","banana",1,"tan",1576513594395,"lettuce","swan",1,69,"none",2,"Graduated College",NA,"English","thirdDistractor","egg",8924,"green bird","green","yellow","thirdDistractor","female",36,1576513173782,7.01021666666667,1,"833746800427623"
"Mon Dec 16 2019 11:19:33 GMT-0500 (Eastern Standard Time)","1576514664419",1,2,"orange_lettuce.png","red","ffc91014a76fc4160aa75bcad1e503f2c77f0139","2|0|3|1",NA,"<strong>Director</strong>: orange salad","swan",1,"tan",1576513594395,"broccoli","lettuce",1,69,"none",2,"Graduated College",NA,"English","thirdDistractor","pumpkin",11017,"orange salad","orange","white","thirdDistractor","female",37,1576513173782,7.01021666666667,1,"833746800427623"
"Mon Dec 16 2019 11:19:33 GMT-0500 (Eastern Standard Time)","1576514681531",1,2,"red_corn.png","yellow","ffc91014a76fc4160aa75bcad1e503f2c77f0139","1|2|3|0",NA,"<strong>Director</strong>: red, should be yellow","corn",1,"aap",1576513594395,"corn","carrot",1,69,"none",2,"Graduated College",NA,"English","target","broccoli",17627,"red, should be yellow","orange","red","target","female",38,1576513173782,7.01021666666667,1,"833746800427623"
"Mon Dec 16 2019 11:19:33 GMT-0500 (Eastern Standard Time)","1576514693035",1,2,"yellow_banana.png","orange","ffc91014a76fc4160aa75bcad1e503f2c77f0139","3|2|1|0",NA,"<strong>Director</strong>: monkey food","banana",1,"tan",1576513594395,"lettuce","corn",1,69,"none",2,"Graduated College",NA,"English","target","strawberry",8968,"monkey food","red","yellow","target","female",39,1576513173782,7.01021666666667,1,"833746800427623"
"Mon Dec 16 2019 11:19:33 GMT-0500 (Eastern Standard Time)","1576514708659",1,2,"yellow_egg.png","white","ffc91014a76fc4160aa75bcad1e503f2c77f0139","3|1|0|2",NA,"<strong>Director</strong>: yellow comes from chicken","egg",1,"atn",1576513594395,"pumpkin","broccoli",1,69,"none",2,"Graduated College",NA,"English","target","banana",18674,"yellow comes from chicken","green","yellow","target","female",40,1576513173782,7.01021666666667,1,"833746800427623"
"Mon Dec 16 2019 11:19:33 GMT-0500 (Eastern Standard Time)","1576514724707",1,2,"orange_lettuce.png","white","ffc91014a76fc4160aa75bcad1e503f2c77f0139","0|1|3|2",NA,"<strong>Director</strong>: orange salad","pumpkin",1,"tap",1576513594395,"pumpkin","carrot",1,69,"none",2,"Graduated College",NA,"English","firstDistractor","lettuce",12042,"orange salad","green","orange","firstDistractor","female",41,1576513173782,7.01021666666667,1,"833746800427623"
"Mon Dec 16 2019 11:19:33 GMT-0500 (Eastern Standard Time)","1576514734890",1,2,"orange_lettuce.png","green","ffc91014a76fc4160aa75bcad1e503f2c77f0139","3|2|1|0",NA,"<strong>Director</strong>: same as last","lettuce",1,"atn",1576513594395,"broccoli","egg",1,69,"none",2,"Graduated College",NA,"English","target","carrot",11067,"same as last","yellow","orange","target","female",42,1576513173782,7.01021666666667,1,"833746800427623"
"Mon Dec 16 2019 11:19:33 GMT-0500 (Eastern Standard Time)","1576514748346",1,2,"red_broccoli.png","orange","ffc91014a76fc4160aa75bcad1e503f2c77f0139","2|0|3|1",NA,"<strong>Director</strong>: red should be green","pumpkin",1,"atn",1576513594395,"lettuce","broccoli",1,69,"none",2,"Graduated College",NA,"English","thirdDistractor","swan",14360,"red should be green","red","white","thirdDistractor","female",43,1576513173782,7.01021666666667,1,"833746800427623"
"Mon Dec 16 2019 11:19:33 GMT-0500 (Eastern Standard Time)","1576514759498",1,2,"green_swan.png","white","ffc91014a76fc4160aa75bcad1e503f2c77f0139","1|2|0|3",NA,"<strong>Director</strong>: green bird","swan",1,"atn",1576513594395,"pumpkin","lettuce",1,69,"none",2,"Graduated College",NA,"English","target","broccoli",8296,"green bird","orange","green","target","female",44,1576513173782,7.01021666666667,1,"833746800427623"
"Mon Dec 16 2019 11:19:33 GMT-0500 (Eastern Standard Time)","1576514774194",1,2,"green_swan.png","yellow","ffc91014a76fc4160aa75bcad1e503f2c77f0139","2|1|3|0",NA,"<strong>Director</strong>: same as last","swan",1,"aan",1576513594395,"corn","strawberry",1,69,"none",2,"Graduated College",NA,"English","target","carrot",13420,"same as last","red","green","target","female",45,1576513173782,7.01021666666667,1,"833746800427623"
"Mon Dec 16 2019 11:19:33 GMT-0500 (Eastern Standard Time)","1576514784994",1,2,"white_egg.png","yellow","ffc91014a76fc4160aa75bcad1e503f2c77f0139","1|0|3|2",NA,"<strong>Director</strong>: comes from a chicken","carrot",1,"ttn",1576513594395,"strawberry","egg",1,69,"none",2,"Graduated College",NA,"English","thirdDistractor","pumpkin",10483,"comes from a chicken","white","orange","thirdDistractor","female",46,1576513173782,7.01021666666667,1,"833746800427623"
"Mon Dec 16 2019 11:19:33 GMT-0500 (Eastern Standard Time)","1576514797466",1,2,"orange_banana.png","white","ffc91014a76fc4160aa75bcad1e503f2c77f0139","1|2|0|3",NA,"<strong>Director</strong>: orange monkey food","tomato",1,"ttn",1576513594395,"pumpkin","banana",1,69,"none",2,"Graduated College",NA,"English","thirdDistractor","strawberry",11994,"orange monkey food","orange","red","thirdDistractor","female",47,1576513173782,7.01021666666667,1,"833746800427623"
"Mon Dec 16 2019 11:19:33 GMT-0500 (Eastern Standard Time)","1576514810917",1,2,"yellow_strawberry.png","red","ffc91014a76fc4160aa75bcad1e503f2c77f0139","0|2|3|1",NA,"<strong>Director</strong>: yellow and green","broccoli",1,"ttn",1576513594395,"corn","strawberry",1,69,"none",2,"Graduated College",NA,"English","thirdDistractor","lettuce",13759,"yellow and green","yellow","green","thirdDistractor","female",48,1576513173782,7.01021666666667,1,"833746800427623"
"Mon Dec 16 2019 11:19:33 GMT-0500 (Eastern Standard Time)","1576514829793",1,2,"green_lettuce.png","red","ffc91014a76fc4160aa75bcad1e503f2c77f0139","0|3|2|1",NA,"<strong>Director</strong>: salad","egg",1,"atn",1576513594395,"broccoli","lettuce",1,69,"none",2,"Graduated College",NA,"English","thirdDistractor","corn",17113,"salad","green","yellow","thirdDistractor","female",49,1576513173782,7.01021666666667,1,"833746800427623"
"Mon Dec 16 2019 11:19:33 GMT-0500 (Eastern Standard Time)","1576514840922|||1576514844001",1,2,"red_corn.png","green","ffc91014a76fc4160aa75bcad1e503f2c77f0139","2|1|0|3",NA,"<strong>Director</strong>: red and greemn\n<strong>Director</strong>: \ngreen","corn",1,"aan",1576513594395,"swan","banana",1,69,"none",2,"Graduated College",NA,"English","target","broccoli",14311,"red and greemn|||\ngreen","yellow","red","target","female",50,1576513173782,7.01021666666667,1,"833746800427623"
"Mon Dec 16 2019 11:19:33 GMT-0500 (Eastern Standard Time)","1576514855586",1,2,"white_egg.png","red","ffc91014a76fc4160aa75bcad1e503f2c77f0139","3|1|2|0",NA,"<strong>Director</strong>: comes from chicken","carrot",1,"atn",1576513594395,"corn","egg",1,69,"none",2,"Graduated College",NA,"English","thirdDistractor","lettuce",11588,"comes from chicken","white","green","thirdDistractor","female",51,1576513173782,7.01021666666667,1,"833746800427623"
"Mon Dec 16 2019 11:19:33 GMT-0500 (Eastern Standard Time)","1576514866844",1,2,"green_lettuce.png","orange","ffc91014a76fc4160aa75bcad1e503f2c77f0139","3|1|0|2",NA,"<strong>Director</strong>: salad","lettuce",1,"ttp",1576513594395,"lettuce","strawberry",1,69,"none",2,"Graduated College",NA,"English","target","broccoli",9596,"salad","yellow","green","target","female",52,1576513173782,7.01021666666667,1,"833746800427623"
"Mon Dec 16 2019 11:19:33 GMT-0500 (Eastern Standard Time)","1576514877641",1,2,"red_corn.png","orange","ffc91014a76fc4160aa75bcad1e503f2c77f0139","3|1|0|2",NA,"<strong>Director</strong>: red and green","egg",1,"tan",1576513594395,"lettuce","corn",1,69,"none",2,"Graduated College",NA,"English","thirdDistractor","tomato",16647,"red and green","red","white","thirdDistractor","female",53,1576513173782,7.01021666666667,1,"833746800427623"
"Mon Dec 16 2019 11:19:33 GMT-0500 (Eastern Standard Time)","1576514895361",1,2,"orange_carrot.png","yellow","ffc91014a76fc4160aa75bcad1e503f2c77f0139","2|3|1|0",NA,"<strong>Director</strong>: rabbit food","egg",1,"tan",1576513594395,"corn","carrot",1,69,"none",2,"Graduated College",NA,"English","thirdDistractor","pumpkin",10833,"rabbit food","orange","white","thirdDistractor","female",54,1576513173782,7.01021666666667,1,"833746800427623"
"Mon Dec 16 2019 11:19:33 GMT-0500 (Eastern Standard Time)","1576514904105",1,2,"orange_carrot.png","green","ffc91014a76fc4160aa75bcad1e503f2c77f0139","2|1|3|0",NA,"<strong>Director</strong>: same as last","carrot",1,"tap",1576513594395,"carrot","corn",1,69,"none",2,"Graduated College",NA,"English","target","banana",10126,"same as last","red","orange","target","female",55,1576513173782,7.01021666666667,1,"833746800427623"
"Mon Dec 16 2019 11:19:33 GMT-0500 (Eastern Standard Time)","1576514916720",1,2,"white_egg.png","orange","ffc91014a76fc4160aa75bcad1e503f2c77f0139","3|1|0|2",NA,"<strong>Director</strong>: chicken","pumpkin",1,"atp",1576513594395,"pumpkin","corn",1,69,"none",2,"Graduated College",NA,"English","firstDistractor","egg",10824,"chicken","red","white","firstDistractor","female",56,1576513173782,7.01021666666667,1,"833746800427623"
"Mon Dec 16 2019 11:19:33 GMT-0500 (Eastern Standard Time)","1576514928592",1,2,"orange_carrot.png","yellow","ffc91014a76fc4160aa75bcad1e503f2c77f0139","3|2|0|1",NA,"<strong>Director</strong>: rabbit food","banana",1,"atp",1576513594395,"banana","swan",1,69,"none",2,"Graduated College",NA,"English","firstDistractor","carrot",10127,"rabbit food","white","orange","firstDistractor","female",57,1576513173782,7.01021666666667,1,"833746800427623"
"Mon Dec 16 2019 11:19:33 GMT-0500 (Eastern Standard Time)","1576514944856",1,2,"red_tomato.png","red","ffc91014a76fc4160aa75bcad1e503f2c77f0139","1|2|0|3",NA,"<strong>Director</strong>: red","tomato",1,"aap",1576513594395,"tomato","carrot",1,69,"none",2,"Graduated College",NA,"English","secondDistractor","pumpkin",16383,"red","orange","white","secondDistractor","female",58,1576513173782,7.01021666666667,1,"833746800427623"
"Mon Dec 16 2019 11:19:33 GMT-0500 (Eastern Standard Time)","1576514953392",1,2,"yellow_strawberry.png","orange","ffc91014a76fc4160aa75bcad1e503f2c77f0139","3|0|1|2",NA,"<strong>Director</strong>: yellow","broccoli",1,"atn",1576513594395,"banana","strawberry",1,69,"none",2,"Graduated College",NA,"English","thirdDistractor","tomato",7578,"yellow","yellow","red","thirdDistractor","female",59,1576513173782,7.01021666666667,1,"833746800427623"
"Mon Dec 16 2019 11:19:33 GMT-0500 (Eastern Standard Time)","1576514965448",1,2,"white_swan.png","green","ffc91014a76fc4160aa75bcad1e503f2c77f0139","2|1|0|3",NA,"<strong>Director</strong>: white bird","swan",1,"tap",1576513594395,"swan","corn",1,69,"none",2,"Graduated College",NA,"English","target","pumpkin",14943,"white bird","yellow","white","target","female",60,1576513173782,7.01021666666667,1,"833746800427623"
"Mon Dec 16 2019 10:19:30 GMT-0600 (Central Standard Time)","1576513817069",1,1,"green_lettuce.png","orange","ae7a6d37036eff5d785be245238cfa1bb614a367","1|2|3|0","1576513747641","<strong>Matcher</strong>: hi\n<strong>Director</strong>: Hi! The object is the base of a salad.","pumpkin",1,"atn",1576513220007,"banana","lettuce",1,54,NA,1,"Graduated High School","hi","English","thirdDistractor","egg",114464,"Hi! The object is the base of a salad.","green","white","thirdDistractor","female",1,1576513170218,0.829816666666667,1,"436063231031178"
"Mon Dec 16 2019 10:19:30 GMT-0600 (Central Standard Time)","1576513918353",1,1,"yellow_banana.png","white","ae7a6d37036eff5d785be245238cfa1bb614a367","1|3|0|2","1576513883739","<strong>Matcher</strong>: Do I just click on the object or do I need to send you a message also?\n<strong>Director</strong>: Just click on it I think. The new object is yellow and monkey's eat them.","banana",1,"ttn",1576513220007,"swan","carrot",1,54,NA,1,"Graduated High School","Do I just click on the object or do I need to send you a message also?","English","target","corn",81935,"Just click on it I think. The new object is yellow and monkey's eat them.","green","yellow","target","female",2,1576513170218,0.829816666666667,1,"436063231031178"
"Mon Dec 16 2019 10:19:30 GMT-0600 (Central Standard Time)","1576513989971",1,1,"white_pumpkin.png","green","ae7a6d37036eff5d785be245238cfa1bb614a367","2|3|0|1",NA,"<strong>Director</strong>: The new one is something we use at Halloween except it's white.","pumpkin",1,"aan",1576513220007,"lettuce","corn",1,54,NA,1,"Graduated High School",NA,"English","target","tomato",69519,"The new one is something we use at Halloween except it's white.","yellow","white","target","female",3,1576513170218,0.829816666666667,1,"436063231031178"
"Mon Dec 16 2019 10:19:30 GMT-0600 (Central Standard Time)","1576514046075",1,1,"yellow_egg.png","yellow","ae7a6d37036eff5d785be245238cfa1bb614a367","2|3|0|1",NA,"<strong>Director</strong>: The object is yellow","egg",1,"tap",1576513220007,"egg","strawberry",1,54,NA,1,"Graduated High School",NA,"English","secondDistractor","pumpkin",46299,"The object is yellow","red","white","secondDistractor","female",4,1576513170218,0.829816666666667,1,"436063231031178"
"Mon Dec 16 2019 10:19:30 GMT-0600 (Central Standard Time)","1576514068271",1,1,"yellow_corn.png","orange","ae7a6d37036eff5d785be245238cfa1bb614a367","1|2|3|0",NA,"<strong>Director</strong>: The object is something on a cob","banana",1,"ttp",1576513220007,"banana","swan",1,54,NA,1,"Graduated High School",NA,"English","firstDistractor","corn",35233,"The object is something on a cob","green","yellow","firstDistractor","female",5,1576513170218,0.829816666666667,1,"436063231031178"
"Mon Dec 16 2019 10:19:30 GMT-0600 (Central Standard Time)","1576514104091",1,1,"red_broccoli.png","green","ae7a6d37036eff5d785be245238cfa1bb614a367","1|0|2|3",NA,"<strong>Director</strong>: The object is red and it's usually green","broccoli",1,"atp",1576513220007,"broccoli","egg",1,54,NA,1,"Graduated High School",NA,"English","target","strawberry",21714,"The object is red and it's usually green","yellow","red","target","female",6,1576513170218,0.829816666666667,1,"436063231031178"
"Mon Dec 16 2019 10:19:30 GMT-0600 (Central Standard Time)","1576514123318",1,1,"green_broccoli.png","green","ae7a6d37036eff5d785be245238cfa1bb614a367","3|0|1|2",NA,"<strong>Director</strong>: The object is green","broccoli",1,"atp",1576513220007,"broccoli","banana",1,54,NA,1,"Graduated High School",NA,"English","secondDistractor","tomato",24800,"The object is green","orange","red","secondDistractor","female",7,1576513170218,0.829816666666667,1,"436063231031178"
"Mon Dec 16 2019 10:19:30 GMT-0600 (Central Standard Time)","1576514153970",1,1,"orange_lettuce.png","green","ae7a6d37036eff5d785be245238cfa1bb614a367","3|1|2|0",NA,"<strong>Director</strong>: The object is orange and used as a salad base","tomato",1,"tan",1576513220007,"carrot","lettuce",1,54,NA,1,"Graduated High School",NA,"English","thirdDistractor","corn",26338,"The object is orange and used as a salad base","orange","red","thirdDistractor","female",8,1576513170218,0.829816666666667,1,"436063231031178"
"Mon Dec 16 2019 10:19:30 GMT-0600 (Central Standard Time)","1576514172041",1,1,"red_broccoli.png","red","ae7a6d37036eff5d785be245238cfa1bb614a367","1|3|0|2",NA,"<strong>Director</strong>: Its red and normally green","broccoli",1,"tap",1576513220007,"broccoli","tomato",1,54,NA,1,"Graduated High School",NA,"English","secondDistractor","swan",15415,"Its red and normally green","white","green","secondDistractor","female",9,1576513170218,0.829816666666667,1,"436063231031178"
"Mon Dec 16 2019 10:19:30 GMT-0600 (Central Standard Time)","1576514189187",1,1,"green_carrot.png","orange","ae7a6d37036eff5d785be245238cfa1bb614a367","0|3|1|2",NA,"<strong>Director</strong>: Its green and usually orange","carrot",1,"aap",1576513220007,"carrot","pumpkin",1,54,NA,1,"Graduated High School",NA,"English","target","swan",25706,"Its green and usually orange","white","green","target","female",10,1576513170218,0.829816666666667,1,"436063231031178"
"Mon Dec 16 2019 10:19:30 GMT-0600 (Central Standard Time)","1576514240944",1,1,"yellow_egg.png","white","ae7a6d37036eff5d785be245238cfa1bb614a367","3|1|2|0",NA,"<strong>Director</strong>: Its yellow with NO green","egg",1,"aan",1576513220007,"pumpkin","carrot",1,54,NA,1,"Graduated High School",NA,"English","target","strawberry",43591,"Its yellow with NO green","orange","yellow","target","female",11,1576513170218,0.829816666666667,1,"436063231031178"
"Mon Dec 16 2019 10:19:30 GMT-0600 (Central Standard Time)","1576514257808",1,1,"white_swan.png","red","ae7a6d37036eff5d785be245238cfa1bb614a367","1|2|3|0",NA,"<strong>Director</strong>: Its a bird","swan",1,"ttn",1576513220007,"tomato","lettuce",1,54,NA,1,"Graduated High School",NA,"English","target","egg",13969,"Its a bird","orange","white","target","female",12,1576513170218,0.829816666666667,1,"436063231031178"
"Mon Dec 16 2019 10:19:30 GMT-0600 (Central Standard Time)","1576514279032",1,1,"green_broccoli.png","red","ae7a6d37036eff5d785be245238cfa1bb614a367","1|3|0|2",NA,"<strong>Director</strong>: Green and looks like a tree","broccoli",1,"tan",1576513220007,"corn","egg",1,54,NA,1,"Graduated High School",NA,"English","target","carrot",34698,"Green and looks like a tree","white","green","target","female",13,1576513170218,0.829816666666667,1,"436063231031178"
"Mon Dec 16 2019 10:19:30 GMT-0600 (Central Standard Time)","1576514306264",1,1,"white_swan.png","red","ae7a6d37036eff5d785be245238cfa1bb614a367","3|2|1|0",NA,"<strong>Director</strong>: Bird","pumpkin",1,"tan",1576513220007,"tomato","swan",1,54,NA,1,"Graduated High School",NA,"English","thirdDistractor","banana",12978,"Bird","white","orange","thirdDistractor","female",14,1576513170218,0.829816666666667,1,"436063231031178"
"Mon Dec 16 2019 10:19:30 GMT-0600 (Central Standard Time)","1576514321135",1,1,"white_tomato.png","green","ae7a6d37036eff5d785be245238cfa1bb614a367","1|2|0|3",NA,"<strong>Director</strong>: Whie and usually red","tomato",1,"atn",1576513220007,"carrot","lettuce",1,54,NA,1,"Graduated High School",NA,"English","target","swan",17120,"Whie and usually red","orange","white","target","female",15,1576513170218,0.829816666666667,1,"436063231031178"
"Mon Dec 16 2019 10:19:30 GMT-0600 (Central Standard Time)","1576514340791",1,1,"white_swan.png","white","ae7a6d37036eff5d785be245238cfa1bb614a367","1|0|2|3",NA,"<strong>Director</strong>: Lower right","swan",1,"aap",1576513220007,"swan","strawberry",1,54,NA,1,"Graduated High School",NA,"English","secondDistractor","carrot",18981,"Lower right","red","green","firstDistractor","female",16,1576513170218,0.829816666666667,1,"436063231031178"
"Mon Dec 16 2019 10:19:30 GMT-0600 (Central Standard Time)","1576514361199",1,1,"white_tomato.png","green","ae7a6d37036eff5d785be245238cfa1bb614a367","2|3|0|1",NA,"<strong>Director</strong>: White and normally red","carrot",1,"tan",1576513220007,"swan","tomato",1,54,NA,1,"Graduated High School",NA,"English","thirdDistractor","banana",19727,"White and normally red","white","orange","thirdDistractor","female",17,1576513170218,0.829816666666667,1,"436063231031178"
"Mon Dec 16 2019 10:19:30 GMT-0600 (Central Standard Time)","1576514382567",1,1,"white_tomato.png","yellow","ae7a6d37036eff5d785be245238cfa1bb614a367","1|0|3|2",NA,"<strong>Director</strong>: Same as last one","broccoli",1,"atn",1576513220007,"egg","tomato",1,54,NA,1,"Graduated High School",NA,"English","thirdDistractor","strawberry",21856,"Same as last one","white","red","thirdDistractor","female",18,1576513170218,0.829816666666667,1,"436063231031178"
"Mon Dec 16 2019 10:19:30 GMT-0600 (Central Standard Time)","1576514400894",1,1,"yellow_strawberry.png","orange","ae7a6d37036eff5d785be245238cfa1bb614a367","1|0|3|2",NA,"<strong>Director</strong>: yellow and green","tomato",1,"tan",1576513220007,"carrot","strawberry",1,54,NA,1,"Graduated High School",NA,"English","thirdDistractor","broccoli",18584,"yellow and green","yellow","red","thirdDistractor","female",19,1576513170218,0.829816666666667,1,"436063231031178"
"Mon Dec 16 2019 10:19:30 GMT-0600 (Central Standard Time)","1576514419557",1,1,"orange_banana.png","white","ae7a6d37036eff5d785be245238cfa1bb614a367","3|2|1|0",NA,"<strong>Director</strong>: orange, should be yellow","swan",1,"atp",1576513220007,"swan","banana",1,54,NA,1,"Graduated High School",NA,"English","thirdDistractor","lettuce",14300,"orange, should be yellow","orange","green","thirdDistractor","female",20,1576513170218,0.829816666666667,1,"436063231031178"
"Mon Dec 16 2019 10:19:30 GMT-0600 (Central Standard Time)","1576514433109",1,1,"red_broccoli.png","white","ae7a6d37036eff5d785be245238cfa1bb614a367","1|0|2|3",NA,"<strong>Director</strong>: red, should be green","tomato",1,"tap",1576513220007,"tomato","swan",1,54,NA,1,"Graduated High School",NA,"English","firstDistractor","broccoli",12463,"red, should be green","green","red","firstDistractor","female",21,1576513170218,0.829816666666667,1,"436063231031178"
"Mon Dec 16 2019 10:19:30 GMT-0600 (Central Standard Time)","1576514448213",1,1,"green_lettuce.png","green","ae7a6d37036eff5d785be245238cfa1bb614a367","1|2|0|3",NA,"<strong>Director</strong>: make a salad with it","lettuce",1,"atp",1576513220007,"lettuce","corn",1,54,NA,1,"Graduated High School",NA,"English","secondDistractor","carrot",15334,"make a salad with it","yellow","orange","secondDistractor","female",22,1576513170218,0.829816666666667,1,"436063231031178"
"Mon Dec 16 2019 10:19:30 GMT-0600 (Central Standard Time)","1576514465133",1,1,"white_egg.png","white","ae7a6d37036eff5d785be245238cfa1bb614a367","2|1|0|3",NA,"<strong>Director</strong>: it comes from a chicken","egg",1,"atp",1576513220007,"egg","swan",1,54,NA,1,"Graduated High School",NA,"English","secondDistractor","banana",20659,"it comes from a chicken","green","yellow","secondDistractor","female",23,1576513170218,0.829816666666667,1,"436063231031178"
"Mon Dec 16 2019 10:19:30 GMT-0600 (Central Standard Time)","1576514486052",1,1,"yellow_strawberry.png","white","ae7a6d37036eff5d785be245238cfa1bb614a367","2|0|3|1",NA,"<strong>Director</strong>: yellow, should be red","egg",1,"aap",1576513220007,"egg","tomato",1,54,NA,1,"Graduated High School",NA,"English","firstDistractor","strawberry",22033,"yellow, should be red","red","yellow","firstDistractor","female",24,1576513170218,0.829816666666667,1,"436063231031178"
"Mon Dec 16 2019 10:19:30 GMT-0600 (Central Standard Time)","1576514510156",1,1,"orange_lettuce.png","orange","ae7a6d37036eff5d785be245238cfa1bb614a367","0|1|2|3",NA,"<strong>Director</strong>: orange, should be green","lettuce",1,"tap",1576513220007,"lettuce","corn",1,54,NA,1,"Graduated High School",NA,"English","secondDistractor","carrot",20261,"orange, should be green","yellow","green","secondDistractor","female",25,1576513170218,0.829816666666667,1,"436063231031178"
"Mon Dec 16 2019 10:19:30 GMT-0600 (Central Standard Time)","1576514525516",1,1,"red_strawberry.png","yellow","ae7a6d37036eff5d785be245238cfa1bb614a367","2|1|3|0",NA,"<strong>Director</strong>: red","egg",1,"tap",1576513220007,"egg","strawberry",1,54,NA,1,"Graduated High School",NA,"English","thirdDistractor","tomato",10684,"red","red","white","thirdDistractor","female",26,1576513170218,0.829816666666667,1,"436063231031178"
"Mon Dec 16 2019 10:19:30 GMT-0600 (Central Standard Time)","1576514534012",1,1,"yellow_banana.png","white","ae7a6d37036eff5d785be245238cfa1bb614a367","2|1|3|0",NA,"<strong>Director</strong>: yellow","strawberry",1,"tan",1576513220007,"swan","banana",1,54,NA,1,"Graduated High School",NA,"English","thirdDistractor","corn",8384,"yellow","yellow","red","thirdDistractor","female",27,1576513170218,0.829816666666667,1,"436063231031178"
"Mon Dec 16 2019 10:19:30 GMT-0600 (Central Standard Time)","1576514542300",1,1,"white_swan.png","orange","ae7a6d37036eff5d785be245238cfa1bb614a367","3|0|1|2",NA,"<strong>Director</strong>: bird","swan",1,"tan",1576513220007,"carrot","strawberry",1,54,NA,1,"Graduated High School",NA,"English","target","tomato",6660,"bird","yellow","white","target","female",28,1576513170218,0.829816666666667,1,"436063231031178"
"Mon Dec 16 2019 10:19:30 GMT-0600 (Central Standard Time)","1576514558148",1,1,"green_lettuce.png","red","ae7a6d37036eff5d785be245238cfa1bb614a367","0|3|2|1",NA,"<strong>Director</strong>: make a salad with it","broccoli",1,"ttp",1576513220007,"broccoli","banana",1,54,NA,1,"Graduated High School",NA,"English","firstDistractor","lettuce",16679,"make a salad with it","yellow","green","firstDistractor","female",29,1576513170218,0.829816666666667,1,"436063231031178"
"Mon Dec 16 2019 10:19:30 GMT-0600 (Central Standard Time)","1576514568980",1,1,"orange_pumpkin.png","yellow","ae7a6d37036eff5d785be245238cfa1bb614a367","3|2|0|1",NA,"<strong>Director</strong>: halloween","pumpkin",1,"ttn",1576513220007,"strawberry","swan",1,54,NA,1,"Graduated High School",NA,"English","target","carrot",9333,"halloween","white","orange","target","female",30,1576513170218,0.829816666666667,1,"436063231031178"
"Mon Dec 16 2019 10:19:30 GMT-0600 (Central Standard Time)","1576514583932",1,1,"white_pumpkin.png","white","ae7a6d37036eff5d785be245238cfa1bb614a367","1|2|0|3",NA,"<strong>Director</strong>: halloween except white","pumpkin",1,"tap",1576513220007,"pumpkin","tomato",1,54,NA,1,"Graduated High School",NA,"English","secondDistractor","banana",15124,"halloween except white","red","orange","secondDistractor","female",31,1576513170218,0.829816666666667,1,"436063231031178"
"Mon Dec 16 2019 10:19:30 GMT-0600 (Central Standard Time)","1576514601004",1,1,"red_strawberry.png","yellow","ae7a6d37036eff5d785be245238cfa1bb614a367","2|3|1|0",NA,"<strong>Director</strong>: red sweet fruit, berry","strawberry",1,"ttp",1576513220007,"strawberry","carrot",1,54,NA,1,"Graduated High School",NA,"English","target","tomato",20060,"red sweet fruit, berry","green","red","target","female",32,1576513170218,0.829816666666667,1,"436063231031178"
"Mon Dec 16 2019 10:19:30 GMT-0600 (Central Standard Time)","1576514622483",1,1,"orange_carrot.png","yellow","ae7a6d37036eff5d785be245238cfa1bb614a367","3|1|0|2",NA,"<strong>Director</strong>: rabbits eat it","carrot",1,"tan",1576513220007,"egg","tomato",1,54,NA,1,"Graduated High School",NA,"English","target","lettuce",17038,"rabbits eat it","white","orange","target","female",33,1576513170218,0.829816666666667,1,"436063231031178"
"Mon Dec 16 2019 10:19:30 GMT-0600 (Central Standard Time)","1576514632611",1,1,"green_swan.png","white","ae7a6d37036eff5d785be245238cfa1bb614a367","3|0|1|2",NA,"<strong>Director</strong>: green bird","swan",1,"atp",1576513220007,"swan","carrot",1,54,NA,1,"Graduated High School",NA,"English","target","broccoli",9027,"green bird","orange","green","target","female",34,1576513170218,0.829816666666667,1,"436063231031178"
"Mon Dec 16 2019 10:19:30 GMT-0600 (Central Standard Time)","1576514644547",1,1,"red_strawberry.png","yellow","ae7a6d37036eff5d785be245238cfa1bb614a367","1|2|3|0",NA,"<strong>Director</strong>: red berry","strawberry",1,"ttn",1576513220007,"banana","broccoli",1,54,NA,1,"Graduated High School",NA,"English","target","tomato",11465,"red berry","green","red","target","female",35,1576513170218,0.829816666666667,1,"436063231031178"
"Mon Dec 16 2019 10:19:30 GMT-0600 (Central Standard Time)","1576514654323",1,1,"green_swan.png","orange","ae7a6d37036eff5d785be245238cfa1bb614a367","3|0|2|1",NA,"<strong>Director</strong>: green bird","banana",1,"tan",1576513220007,"lettuce","swan",1,54,NA,1,"Graduated High School",NA,"English","thirdDistractor","egg",8924,"green bird","green","yellow","thirdDistractor","female",36,1576513170218,0.829816666666667,1,"436063231031178"
"Mon Dec 16 2019 10:19:30 GMT-0600 (Central Standard Time)","1576514664419",1,1,"orange_lettuce.png","red","ae7a6d37036eff5d785be245238cfa1bb614a367","2|1|0|3",NA,"<strong>Director</strong>: orange salad","swan",1,"tan",1576513220007,"broccoli","lettuce",1,54,NA,1,"Graduated High School",NA,"English","thirdDistractor","pumpkin",11017,"orange salad","orange","white","thirdDistractor","female",37,1576513170218,0.829816666666667,1,"436063231031178"
"Mon Dec 16 2019 10:19:30 GMT-0600 (Central Standard Time)","1576514681531",1,1,"red_corn.png","yellow","ae7a6d37036eff5d785be245238cfa1bb614a367","0|1|3|2",NA,"<strong>Director</strong>: red, should be yellow","corn",1,"aap",1576513220007,"corn","carrot",1,54,NA,1,"Graduated High School",NA,"English","target","broccoli",17627,"red, should be yellow","orange","red","target","female",38,1576513170218,0.829816666666667,1,"436063231031178"
"Mon Dec 16 2019 10:19:30 GMT-0600 (Central Standard Time)","1576514693035",1,1,"yellow_banana.png","orange","ae7a6d37036eff5d785be245238cfa1bb614a367","1|0|3|2",NA,"<strong>Director</strong>: monkey food","banana",1,"tan",1576513220007,"lettuce","corn",1,54,NA,1,"Graduated High School",NA,"English","target","strawberry",8968,"monkey food","red","yellow","target","female",39,1576513170218,0.829816666666667,1,"436063231031178"
"Mon Dec 16 2019 10:19:30 GMT-0600 (Central Standard Time)","1576514708659",1,1,"yellow_egg.png","white","ae7a6d37036eff5d785be245238cfa1bb614a367","2|3|1|0",NA,"<strong>Director</strong>: yellow comes from chicken","egg",1,"atn",1576513220007,"pumpkin","broccoli",1,54,NA,1,"Graduated High School",NA,"English","target","banana",18674,"yellow comes from chicken","green","yellow","target","female",40,1576513170218,0.829816666666667,1,"436063231031178"
"Mon Dec 16 2019 10:19:30 GMT-0600 (Central Standard Time)","1576514724707",1,1,"orange_lettuce.png","white","ae7a6d37036eff5d785be245238cfa1bb614a367","0|2|1|3",NA,"<strong>Director</strong>: orange salad","pumpkin",1,"tap",1576513220007,"pumpkin","carrot",1,54,NA,1,"Graduated High School",NA,"English","firstDistractor","lettuce",12042,"orange salad","green","orange","firstDistractor","female",41,1576513170218,0.829816666666667,1,"436063231031178"
"Mon Dec 16 2019 10:19:30 GMT-0600 (Central Standard Time)","1576514734890",1,1,"orange_lettuce.png","green","ae7a6d37036eff5d785be245238cfa1bb614a367","2|3|1|0",NA,"<strong>Director</strong>: same as last","lettuce",1,"atn",1576513220007,"broccoli","egg",1,54,NA,1,"Graduated High School",NA,"English","target","carrot",11067,"same as last","yellow","orange","target","female",42,1576513170218,0.829816666666667,1,"436063231031178"
"Mon Dec 16 2019 10:19:30 GMT-0600 (Central Standard Time)","1576514748346",1,1,"red_broccoli.png","orange","ae7a6d37036eff5d785be245238cfa1bb614a367","0|3|1|2",NA,"<strong>Director</strong>: red should be green","pumpkin",1,"atn",1576513220007,"lettuce","broccoli",1,54,NA,1,"Graduated High School",NA,"English","thirdDistractor","swan",14360,"red should be green","red","white","thirdDistractor","female",43,1576513170218,0.829816666666667,1,"436063231031178"
"Mon Dec 16 2019 10:19:30 GMT-0600 (Central Standard Time)","1576514759498",1,1,"green_swan.png","white","ae7a6d37036eff5d785be245238cfa1bb614a367","0|3|2|1",NA,"<strong>Director</strong>: green bird","swan",1,"atn",1576513220007,"pumpkin","lettuce",1,54,NA,1,"Graduated High School",NA,"English","target","broccoli",8296,"green bird","orange","green","target","female",44,1576513170218,0.829816666666667,1,"436063231031178"
"Mon Dec 16 2019 10:19:30 GMT-0600 (Central Standard Time)","1576514774194",1,1,"green_swan.png","yellow","ae7a6d37036eff5d785be245238cfa1bb614a367","2|3|1|0",NA,"<strong>Director</strong>: same as last","swan",1,"aan",1576513220007,"corn","strawberry",1,54,NA,1,"Graduated High School",NA,"English","target","carrot",13420,"same as last","red","green","target","female",45,1576513170218,0.829816666666667,1,"436063231031178"
"Mon Dec 16 2019 10:19:30 GMT-0600 (Central Standard Time)","1576514784994",1,1,"white_egg.png","yellow","ae7a6d37036eff5d785be245238cfa1bb614a367","1|3|0|2",NA,"<strong>Director</strong>: comes from a chicken","carrot",1,"ttn",1576513220007,"strawberry","egg",1,54,NA,1,"Graduated High School",NA,"English","thirdDistractor","pumpkin",10483,"comes from a chicken","white","orange","thirdDistractor","female",46,1576513170218,0.829816666666667,1,"436063231031178"
"Mon Dec 16 2019 10:19:30 GMT-0600 (Central Standard Time)","1576514797466",1,1,"orange_banana.png","white","ae7a6d37036eff5d785be245238cfa1bb614a367","1|3|2|0",NA,"<strong>Director</strong>: orange monkey food","tomato",1,"ttn",1576513220007,"pumpkin","banana",1,54,NA,1,"Graduated High School",NA,"English","thirdDistractor","strawberry",11994,"orange monkey food","orange","red","thirdDistractor","female",47,1576513170218,0.829816666666667,1,"436063231031178"
"Mon Dec 16 2019 10:19:30 GMT-0600 (Central Standard Time)","1576514810917",1,1,"yellow_strawberry.png","red","ae7a6d37036eff5d785be245238cfa1bb614a367","2|3|0|1",NA,"<strong>Director</strong>: yellow and green","broccoli",1,"ttn",1576513220007,"corn","strawberry",1,54,NA,1,"Graduated High School",NA,"English","thirdDistractor","lettuce",13759,"yellow and green","yellow","green","thirdDistractor","female",48,1576513170218,0.829816666666667,1,"436063231031178"
"Mon Dec 16 2019 10:19:30 GMT-0600 (Central Standard Time)","1576514829793",1,1,"green_lettuce.png","red","ae7a6d37036eff5d785be245238cfa1bb614a367","2|0|3|1",NA,"<strong>Director</strong>: salad","egg",1,"atn",1576513220007,"broccoli","lettuce",1,54,NA,1,"Graduated High School",NA,"English","thirdDistractor","corn",17113,"salad","green","yellow","thirdDistractor","female",49,1576513170218,0.829816666666667,1,"436063231031178"
"Mon Dec 16 2019 10:19:30 GMT-0600 (Central Standard Time)","1576514840922|||1576514844001",1,1,"red_corn.png","green","ae7a6d37036eff5d785be245238cfa1bb614a367","2|1|0|3",NA,"<strong>Director</strong>: red and greemn\n<strong>Director</strong>: \ngreen","corn",1,"aan",1576513220007,"swan","banana",1,54,NA,1,"Graduated High School",NA,"English","target","broccoli",14311,"red and greemn|||\ngreen","yellow","red","target","female",50,1576513170218,0.829816666666667,1,"436063231031178"
"Mon Dec 16 2019 10:19:30 GMT-0600 (Central Standard Time)","1576514855586",1,1,"white_egg.png","red","ae7a6d37036eff5d785be245238cfa1bb614a367","0|3|1|2",NA,"<strong>Director</strong>: comes from chicken","carrot",1,"atn",1576513220007,"corn","egg",1,54,NA,1,"Graduated High School",NA,"English","thirdDistractor","lettuce",11588,"comes from chicken","white","green","thirdDistractor","female",51,1576513170218,0.829816666666667,1,"436063231031178"
"Mon Dec 16 2019 10:19:30 GMT-0600 (Central Standard Time)","1576514866844",1,1,"green_lettuce.png","orange","ae7a6d37036eff5d785be245238cfa1bb614a367","0|3|1|2",NA,"<strong>Director</strong>: salad","lettuce",1,"ttp",1576513220007,"lettuce","strawberry",1,54,NA,1,"Graduated High School",NA,"English","target","broccoli",9596,"salad","yellow","green","target","female",52,1576513170218,0.829816666666667,1,"436063231031178"
"Mon Dec 16 2019 10:19:30 GMT-0600 (Central Standard Time)","1576514877641",1,1,"red_corn.png","orange","ae7a6d37036eff5d785be245238cfa1bb614a367","0|3|2|1",NA,"<strong>Director</strong>: red and green","egg",1,"tan",1576513220007,"lettuce","corn",1,54,NA,1,"Graduated High School",NA,"English","thirdDistractor","tomato",16647,"red and green","red","white","thirdDistractor","female",53,1576513170218,0.829816666666667,1,"436063231031178"
"Mon Dec 16 2019 10:19:30 GMT-0600 (Central Standard Time)","1576514895361",1,1,"orange_carrot.png","yellow","ae7a6d37036eff5d785be245238cfa1bb614a367","3|0|2|1",NA,"<strong>Director</strong>: rabbit food","egg",1,"tan",1576513220007,"corn","carrot",1,54,NA,1,"Graduated High School",NA,"English","thirdDistractor","pumpkin",10833,"rabbit food","orange","white","thirdDistractor","female",54,1576513170218,0.829816666666667,1,"436063231031178"
"Mon Dec 16 2019 10:19:30 GMT-0600 (Central Standard Time)","1576514904105",1,1,"orange_carrot.png","green","ae7a6d37036eff5d785be245238cfa1bb614a367","3|1|0|2",NA,"<strong>Director</strong>: same as last","carrot",1,"tap",1576513220007,"carrot","corn",1,54,NA,1,"Graduated High School",NA,"English","target","banana",10126,"same as last","red","orange","target","female",55,1576513170218,0.829816666666667,1,"436063231031178"
"Mon Dec 16 2019 10:19:30 GMT-0600 (Central Standard Time)","1576514916720",1,1,"white_egg.png","orange","ae7a6d37036eff5d785be245238cfa1bb614a367","2|3|1|0",NA,"<strong>Director</strong>: chicken","pumpkin",1,"atp",1576513220007,"pumpkin","corn",1,54,NA,1,"Graduated High School",NA,"English","firstDistractor","egg",10824,"chicken","red","white","firstDistractor","female",56,1576513170218,0.829816666666667,1,"436063231031178"
"Mon Dec 16 2019 10:19:30 GMT-0600 (Central Standard Time)","1576514928592",1,1,"orange_carrot.png","yellow","ae7a6d37036eff5d785be245238cfa1bb614a367","3|0|1|2",NA,"<strong>Director</strong>: rabbit food","banana",1,"atp",1576513220007,"banana","swan",1,54,NA,1,"Graduated High School",NA,"English","firstDistractor","carrot",10127,"rabbit food","white","orange","firstDistractor","female",57,1576513170218,0.829816666666667,1,"436063231031178"
"Mon Dec 16 2019 10:19:30 GMT-0600 (Central Standard Time)","1576514944856",1,1,"red_tomato.png","red","ae7a6d37036eff5d785be245238cfa1bb614a367","2|3|0|1",NA,"<strong>Director</strong>: red","tomato",1,"aap",1576513220007,"tomato","carrot",1,54,NA,1,"Graduated High School",NA,"English","secondDistractor","pumpkin",16383,"red","orange","white","secondDistractor","female",58,1576513170218,0.829816666666667,1,"436063231031178"
"Mon Dec 16 2019 10:19:30 GMT-0600 (Central Standard Time)","1576514953392",1,1,"yellow_strawberry.png","orange","ae7a6d37036eff5d785be245238cfa1bb614a367","1|2|3|0",NA,"<strong>Director</strong>: yellow","broccoli",1,"atn",1576513220007,"banana","strawberry",1,54,NA,1,"Graduated High School",NA,"English","thirdDistractor","tomato",7578,"yellow","yellow","red","thirdDistractor","female",59,1576513170218,0.829816666666667,1,"436063231031178"
"Mon Dec 16 2019 10:19:30 GMT-0600 (Central Standard Time)","1576514965448",1,1,"white_swan.png","green","ae7a6d37036eff5d785be245238cfa1bb614a367","0|2|1|3",NA,"<strong>Director</strong>: white bird","swan",1,"tap",1576513220007,"swan","corn",1,54,NA,1,"Graduated High School",NA,"English","target","pumpkin",14943,"white bird","yellow","white","target","female",60,1576513170218,0.829816666666667,1,"436063231031178"
"Mon Dec 16 2019 11:53:19 GMT-0500 (Eastern Standard Time)","1576515256102",1,2,"white_egg.png","orange","e896661f9935453b43f686684dbbbc8207f720d4","0|2|1|3",NA,"<strong>Director</strong>: A egg","lettuce",2,"tan",1576515217408,"pumpkin","egg",1,38,NA,2,"Graduated College",NA,"english","thirdDistractor","swan",19683,"A egg","white","green","thirdDistractor","male",1,1576515199157,0.304183333333333,2,"754425874221049"
"Mon Dec 16 2019 11:53:19 GMT-0500 (Eastern Standard Time)","1576515264550",1,2,"white_pumpkin.png","red","e896661f9935453b43f686684dbbbc8207f720d4","3|1|2|0",NA,"<strong>Director</strong>: White pumpkin","pumpkin",2,"atn",1576515217408,"strawberry","swan",1,38,NA,2,"Graduated College",NA,"english","target","egg",5322,"White pumpkin","green","white","target","male",2,1576515199157,0.304183333333333,2,"754425874221049"
"Mon Dec 16 2019 11:53:19 GMT-0500 (Eastern Standard Time)","1576515272128",1,2,"orange_lettuce.png","red","e896661f9935453b43f686684dbbbc8207f720d4","1|3|0|2",NA,"<strong>Director</strong>: weird orange ball","corn",2,"tap",1576515217408,"corn","lettuce",1,38,NA,2,"Graduated College",NA,"english","thirdDistractor","egg",9464,"weird orange ball","orange","yellow","thirdDistractor","male",3,1576515199157,0.304183333333333,2,"754425874221049"
"Mon Dec 16 2019 11:53:19 GMT-0500 (Eastern Standard Time)","1576515283787",1,2,"orange_lettuce.png","white","e896661f9935453b43f686684dbbbc8207f720d4","3|0|2|1",NA,"<strong>Director</strong>: another weird orange thing","corn",2,"tan",1576515217408,"tomato","lettuce",1,38,NA,2,"Graduated College",NA,"english","thirdDistractor","egg",9674,"another weird orange thing","orange","yellow","thirdDistractor","male",4,1576515199157,0.304183333333333,2,"754425874221049"
"Mon Dec 16 2019 11:53:19 GMT-0500 (Eastern Standard Time)","1576515292526",1,2,"green_carrot.png","yellow","e896661f9935453b43f686684dbbbc8207f720d4","3|0|2|1",NA,"<strong>Director</strong>: a green carrot","egg",2,"tap",1576515217408,"egg","carrot",1,38,NA,2,"Graduated College",NA,"english","thirdDistractor","pumpkin",7840,"a green carrot","green","white","thirdDistractor","male",5,1576515199157,0.304183333333333,2,"754425874221049"
"Mon Dec 16 2019 11:53:19 GMT-0500 (Eastern Standard Time)","1576515298898",1,2,"green_swan.png","white","e896661f9935453b43f686684dbbbc8207f720d4","0|1|3|2",NA,"<strong>Director</strong>: a green swan","swan",2,"aap",1576515217408,"swan","corn",1,38,NA,2,"Graduated College",NA,"english","target","carrot",5218,"a green swan","red","green","target","male",6,1576515199157,0.304183333333333,2,"754425874221049"
"Mon Dec 16 2019 11:53:19 GMT-0500 (Eastern Standard Time)","1576515307109",1,2,"yellow_banana.png","yellow","e896661f9935453b43f686684dbbbc8207f720d4","2|3|0|1",NA,"<strong>Director</strong>: a yellow banana","banana",2,"atp",1576515217408,"banana","swan",1,38,NA,2,"Graduated College",NA,"english","secondDistractor","carrot",7770,"a yellow banana","white","orange","secondDistractor","male",7,1576515199157,0.304183333333333,2,"754425874221049"
"Mon Dec 16 2019 11:53:19 GMT-0500 (Eastern Standard Time)","1576515312885",1,2,"red_tomato.png","red","e896661f9935453b43f686684dbbbc8207f720d4","1|3|2|0",NA,"<strong>Director</strong>: red tomato","tomato",2,"aap",1576515217408,"tomato","corn",1,38,NA,2,"Graduated College",NA,"english","secondDistractor","pumpkin",5242,"red tomato","yellow","white","secondDistractor","male",8,1576515199157,0.304183333333333,2,"754425874221049"
"Mon Dec 16 2019 11:53:19 GMT-0500 (Eastern Standard Time)","1576515317610",1,2,"orange_banana.png","yellow","e896661f9935453b43f686684dbbbc8207f720d4","1|2|0|3",NA,"<strong>Director</strong>: orange banana","swan",2,"tan",1576515217408,"strawberry","banana",1,38,NA,2,"Graduated College",NA,"english","thirdDistractor","tomato",5072,"orange banana","orange","white","thirdDistractor","male",9,1576515199157,0.304183333333333,2,"754425874221049"
"Mon Dec 16 2019 11:53:19 GMT-0500 (Eastern Standard Time)","1576515322656",1,2,"red_corn.png","yellow","e896661f9935453b43f686684dbbbc8207f720d4","1|2|0|3",NA,"<strong>Director</strong>: red corn","corn",2,"atp",1576515217408,"corn","carrot",1,38,NA,2,"Graduated College",NA,"english","target","tomato",3993,"red corn","orange","red","target","male",10,1576515199157,0.304183333333333,2,"754425874221049"
"Mon Dec 16 2019 11:53:19 GMT-0500 (Eastern Standard Time)","1576515327501",1,2,"red_strawberry.png","yellow","e896661f9935453b43f686684dbbbc8207f720d4","0|2|3|1",NA,"<strong>Director</strong>: strawberry","strawberry",2,"ttn",1576515217408,"egg","swan",1,38,NA,2,"Graduated College",NA,"english","target","tomato",3990,"strawberry","white","red","target","male",11,1576515199157,0.304183333333333,2,"754425874221049"
"Mon Dec 16 2019 11:53:19 GMT-0500 (Eastern Standard Time)","1576515331789",1,2,"white_swan.png","yellow","e896661f9935453b43f686684dbbbc8207f720d4","3|2|1|0",NA,"<strong>Director</strong>: swan","swan",2,"tan",1576515217408,"strawberry","banana",1,38,NA,2,"Graduated College",NA,"english","target","pumpkin",3708,"swan","orange","white","target","male",12,1576515199157,0.304183333333333,2,"754425874221049"
"Mon Dec 16 2019 11:53:19 GMT-0500 (Eastern Standard Time)","1576515338304",1,2,"red_strawberry.png","yellow","e896661f9935453b43f686684dbbbc8207f720d4","3|1|2|0",NA,"<strong>Director</strong>: strawberry","strawberry",2,"ttp",1576515217408,"strawberry","egg",1,38,NA,2,"Graduated College",NA,"english","target","tomato",5896,"strawberry","white","red","target","male",13,1576515199157,0.304183333333333,2,"754425874221049"
"Mon Dec 16 2019 11:53:19 GMT-0500 (Eastern Standard Time)","1576515342727",1,2,"green_swan.png","orange","e896661f9935453b43f686684dbbbc8207f720d4","1|2|3|0",NA,"<strong>Director</strong>: green swan","lettuce",2,"tap",1576515217408,"lettuce","tomato",1,38,NA,2,"Graduated College",NA,"english","firstDistractor","swan",4121,"green swan","red","green","firstDistractor","male",14,1576515199157,0.304183333333333,2,"754425874221049"
"Mon Dec 16 2019 11:53:19 GMT-0500 (Eastern Standard Time)","1576515348615",1,2,"yellow_strawberry.png","green","e896661f9935453b43f686684dbbbc8207f720d4","0|2|3|1",NA,"<strong>Director</strong>: yellow strawberry","strawberry",2,"atn",1576515217408,"carrot","corn",1,38,NA,2,"Graduated College",NA,"english","target","banana",5138,"yellow strawberry","red","yellow","target","male",15,1576515199157,0.304183333333333,2,"754425874221049"
"Mon Dec 16 2019 11:53:19 GMT-0500 (Eastern Standard Time)","1576515354183",1,2,"white_tomato.png","orange","e896661f9935453b43f686684dbbbc8207f720d4","3|0|2|1",NA,"<strong>Director</strong>: white tomato","tomato",2,"aan",1576515217408,"carrot","broccoli",1,38,NA,2,"Graduated College",NA,"english","target","pumpkin",5904,"white tomato","red","white","target","male",16,1576515199157,0.304183333333333,2,"754425874221049"
"Mon Dec 16 2019 11:53:19 GMT-0500 (Eastern Standard Time)","1576515359978",1,2,"red_strawberry.png","orange","e896661f9935453b43f686684dbbbc8207f720d4","1|2|0|3",NA,"<strong>Director</strong>: strawberry","strawberry",2,"tan",1576515217408,"banana","corn",1,38,NA,2,"Graduated College",NA,"english","target","broccoli",4498,"strawberry","yellow","red","target","male",17,1576515199157,0.304183333333333,2,"754425874221049"
"Mon Dec 16 2019 11:53:19 GMT-0500 (Eastern Standard Time)","1576515364934",1,2,"red_tomato.png","red","e896661f9935453b43f686684dbbbc8207f720d4","0|2|1|3",NA,"<strong>Director</strong>: red tomato","tomato",2,"atp",1576515217408,"tomato","lettuce",1,38,NA,2,"Graduated College",NA,"english","secondDistractor","egg",4318,"red tomato","green","white","secondDistractor","male",18,1576515199157,0.304183333333333,2,"754425874221049"
"Mon Dec 16 2019 11:53:19 GMT-0500 (Eastern Standard Time)","1576515368286",1,2,"white_egg.png","yellow","e896661f9935453b43f686684dbbbc8207f720d4","3|1|2|0",NA,"<strong>Director</strong>: egg","egg",2,"ttn",1576515217408,"strawberry","lettuce",1,38,NA,2,"Graduated College",NA,"english","target","swan",2774,"egg","orange","white","target","male",19,1576515199157,0.304183333333333,2,"754425874221049"
"Mon Dec 16 2019 11:53:19 GMT-0500 (Eastern Standard Time)","1576515377981",1,2,"red_broccoli.png","white","e896661f9935453b43f686684dbbbc8207f720d4","3|2|1|0",NA,"<strong>Director</strong>: red califlower","broccoli",2,"atn",1576515217408,"pumpkin","banana",1,38,NA,2,"Graduated College",NA,"english","target","strawberry",9561,"red califlower","orange","red","target","male",20,1576515199157,0.304183333333333,2,"754425874221049"
"Mon Dec 16 2019 11:53:19 GMT-0500 (Eastern Standard Time)","1576515383977",1,2,"green_carrot.png","green","e896661f9935453b43f686684dbbbc8207f720d4","1|0|3|2",NA,"<strong>Director</strong>: green carrot","carrot",2,"tap",1576515217408,"carrot","strawberry",1,38,NA,2,"Graduated College",NA,"english","secondDistractor","lettuce",5502,"green carrot","red","orange","secondDistractor","male",21,1576515199157,0.304183333333333,2,"754425874221049"
"Mon Dec 16 2019 11:53:19 GMT-0500 (Eastern Standard Time)","1576515389052",1,2,"yellow_egg.png","white","e896661f9935453b43f686684dbbbc8207f720d4","1|3|2|0",NA,"<strong>Director</strong>: Yellow egg","egg",2,"atp",1576515217408,"egg","carrot",1,38,NA,2,"Graduated College",NA,"english","target","corn",4220,"Yellow egg","green","yellow","target","male",22,1576515199157,0.304183333333333,2,"754425874221049"
"Mon Dec 16 2019 11:53:19 GMT-0500 (Eastern Standard Time)","1576515393904",1,2,"white_pumpkin.png","green","e896661f9935453b43f686684dbbbc8207f720d4","2|3|0|1",NA,"<strong>Director</strong>: white pumpkin","pumpkin",2,"aan",1576515217408,"carrot","corn",1,38,NA,2,"Graduated College",NA,"english","target","tomato",5100,"white pumpkin","yellow","white","target","male",23,1576515199157,0.304183333333333,2,"754425874221049"
"Mon Dec 16 2019 11:53:19 GMT-0500 (Eastern Standard Time)","1576515399632",1,2,"white_swan.png","yellow","e896661f9935453b43f686684dbbbc8207f720d4","1|3|2|0",NA,"<strong>Director</strong>: swan","egg",2,"ttp",1576515217408,"egg","lettuce",1,38,NA,2,"Graduated College",NA,"english","firstDistractor","swan",4099,"swan","green","white","firstDistractor","male",24,1576515199157,0.304183333333333,2,"754425874221049"
"Mon Dec 16 2019 11:53:19 GMT-0500 (Eastern Standard Time)","1576515404420",1,2,"green_lettuce.png","red","e896661f9935453b43f686684dbbbc8207f720d4","1|3|2|0",NA,"<strong>Director</strong>: lettuce","pumpkin",2,"atn",1576515217408,"corn","lettuce",1,38,NA,2,"Graduated College",NA,"english","thirdDistractor","swan",4331,"lettuce","green","white","thirdDistractor","male",25,1576515199157,0.304183333333333,2,"754425874221049"
"Mon Dec 16 2019 11:53:19 GMT-0500 (Eastern Standard Time)","1576515409231",1,2,"orange_banana.png","green","e896661f9935453b43f686684dbbbc8207f720d4","0|3|2|1",NA,"<strong>Director</strong>: orange banana","broccoli",2,"aap",1576515217408,"broccoli","banana",1,38,NA,2,"Graduated College",NA,"english","thirdDistractor","corn",4075,"orange banana","orange","red","thirdDistractor","male",26,1576515199157,0.304183333333333,2,"754425874221049"
"Mon Dec 16 2019 11:53:19 GMT-0500 (Eastern Standard Time)","1576515418099",1,2,"green_broccoli.png","orange","e896661f9935453b43f686684dbbbc8207f720d4","2|3|0|1",NA,"<strong>Director</strong>: broccoli","carrot",2,"atp",1576515217408,"carrot","egg",1,38,NA,2,"Graduated College",NA,"english","firstDistractor","broccoli",8231,"broccoli","white","green","firstDistractor","male",27,1576515199157,0.304183333333333,2,"754425874221049"
"Mon Dec 16 2019 11:53:19 GMT-0500 (Eastern Standard Time)","1576515422970",1,2,"orange_lettuce.png","yellow","e896661f9935453b43f686684dbbbc8207f720d4","3|0|2|1",NA,"<strong>Director</strong>: orange lettuce","strawberry",2,"tap",1576515217408,"strawberry","lettuce",1,38,NA,2,"Graduated College",NA,"english","thirdDistractor","broccoli",4830,"orange lettuce","orange","red","thirdDistractor","male",28,1576515199157,0.304183333333333,2,"754425874221049"
"Mon Dec 16 2019 11:53:19 GMT-0500 (Eastern Standard Time)","1576515431110",1,2,"orange_pumpkin.png","green","e896661f9935453b43f686684dbbbc8207f720d4","2|3|1|0",NA,"<strong>Director</strong>: pumpkin","pumpkin",2,"ttn",1576515217408,"lettuce","tomato",1,38,NA,2,"Graduated College",NA,"english","target","carrot",7267,"pumpkin","red","orange","target","male",29,1576515199157,0.304183333333333,2,"754425874221049"
"Mon Dec 16 2019 11:53:19 GMT-0500 (Eastern Standard Time)","1576515434273",1,2,"white_swan.png","red","e896661f9935453b43f686684dbbbc8207f720d4","1|2|0|3",NA,"<strong>Director</strong>: swan","tomato",2,"atp",1576515217408,"tomato","strawberry",1,38,NA,2,"Graduated College",NA,"english","firstDistractor","swan",2651,"swan","yellow","white","firstDistractor","male",30,1576515199157,0.304183333333333,2,"754425874221049"
"Mon Dec 16 2019 11:53:19 GMT-0500 (Eastern Standard Time)","1576515439768",1,2,"green_broccoli.png","red","e896661f9935453b43f686684dbbbc8207f720d4","0|1|3|2",NA,"<strong>Director</strong>: broccoli","broccoli",2,"tap",1576515217408,"broccoli","pumpkin",1,38,NA,2,"Graduated College",NA,"english","target","swan",4662,"broccoli","white","green","target","male",31,1576515199157,0.304183333333333,2,"754425874221049"
"Mon Dec 16 2019 11:53:19 GMT-0500 (Eastern Standard Time)","1576515443321",1,2,"white_egg.png","white","e896661f9935453b43f686684dbbbc8207f720d4","2|3|1|0",NA,"<strong>Director</strong>: egg","egg",2,"atp",1576515217408,"egg","lettuce",1,38,NA,2,"Graduated College",NA,"english","secondDistractor","banana",2980,"egg","orange","yellow","secondDistractor","male",32,1576515199157,0.304183333333333,2,"754425874221049"
"Mon Dec 16 2019 11:53:19 GMT-0500 (Eastern Standard Time)","1576515448436",1,2,"orange_lettuce.png","green","e896661f9935453b43f686684dbbbc8207f720d4","2|3|0|1",NA,"<strong>Director</strong>: orange lettuce","lettuce",2,"atn",1576515217408,"carrot","swan",1,38,NA,2,"Graduated College",NA,"english","target","pumpkin",5074,"orange lettuce","white","orange","target","male",33,1576515199157,0.304183333333333,2,"754425874221049"
"Mon Dec 16 2019 11:53:19 GMT-0500 (Eastern Standard Time)","1576515453864",1,2,"yellow_strawberry.png","white","e896661f9935453b43f686684dbbbc8207f720d4","3|1|2|0",NA,"<strong>Director</strong>: yellow strawberry","egg",2,"aap",1576515217408,"egg","lettuce",1,38,NA,2,"Graduated College",NA,"english","firstDistractor","strawberry",4800,"yellow strawberry","green","yellow","firstDistractor","male",34,1576515199157,0.304183333333333,2,"754425874221049"
"Mon Dec 16 2019 11:53:19 GMT-0500 (Eastern Standard Time)","1576515458007",1,2,"red_broccoli.png","yellow","e896661f9935453b43f686684dbbbc8207f720d4","2|0|3|1",NA,"<strong>Director</strong>: red califlower","broccoli",2,"aan",1576515217408,"strawberry","pumpkin",1,38,NA,2,"Graduated College",NA,"english","target","corn",3753,"red califlower","orange","red","target","male",35,1576515199157,0.304183333333333,2,"754425874221049"
"Mon Dec 16 2019 11:53:19 GMT-0500 (Eastern Standard Time)","1576515463011",1,2,"orange_pumpkin.png","orange","e896661f9935453b43f686684dbbbc8207f720d4","0|3|1|2",NA,"<strong>Director</strong>: pumpkin","pumpkin",2,"atp",1576515217408,"pumpkin","swan",1,38,NA,2,"Graduated College",NA,"english","secondDistractor","egg",3886,"pumpkin","green","white","secondDistractor","male",36,1576515199157,0.304183333333333,2,"754425874221049"
"Mon Dec 16 2019 11:53:19 GMT-0500 (Eastern Standard Time)","1576515469087",1,2,"yellow_strawberry.png","orange","e896661f9935453b43f686684dbbbc8207f720d4","1|3|2|0",NA,"<strong>Director</strong>: yellow strawberry","broccoli",2,"tan",1576515217408,"banana","strawberry",1,38,NA,2,"Graduated College",NA,"english","thirdDistractor","carrot",5173,"yellow strawberry","yellow","green","thirdDistractor","male",37,1576515199157,0.304183333333333,2,"754425874221049"
"Mon Dec 16 2019 11:53:19 GMT-0500 (Eastern Standard Time)","1576515472963",1,2,"green_swan.png","orange","e896661f9935453b43f686684dbbbc8207f720d4","3|2|1|0",NA,"<strong>Director</strong>: green swan","carrot",2,"aap",1576515217408,"carrot","strawberry",1,38,NA,2,"Graduated College",NA,"english","firstDistractor","swan",3431,"green swan","red","green","firstDistractor","male",38,1576515199157,0.304183333333333,2,"754425874221049"
"Mon Dec 16 2019 11:53:19 GMT-0500 (Eastern Standard Time)","1576515477551",1,2,"yellow_egg.png","red","e896661f9935453b43f686684dbbbc8207f720d4","3|1|0|2",NA,"<strong>Director</strong>: yellow egg","carrot",2,"tan",1576515217408,"tomato","egg",1,38,NA,2,"Graduated College",NA,"english","thirdDistractor","banana",4456,"yellow egg","yellow","orange","thirdDistractor","male",39,1576515199157,0.304183333333333,2,"754425874221049"
"Mon Dec 16 2019 11:53:19 GMT-0500 (Eastern Standard Time)","1576515482566",1,2,"orange_lettuce.png","orange","e896661f9935453b43f686684dbbbc8207f720d4","3|0|2|1",NA,"<strong>Director</strong>: orange lettuce","lettuce",2,"tap",1576515217408,"lettuce","strawberry",1,38,NA,2,"Graduated College",NA,"english","secondDistractor","carrot",4386,"orange lettuce","red","green","secondDistractor","male",40,1576515199157,0.304183333333333,2,"754425874221049"
"Mon Dec 16 2019 11:53:19 GMT-0500 (Eastern Standard Time)","1576515487185",1,2,"orange_lettuce.png","green","e896661f9935453b43f686684dbbbc8207f720d4","3|0|2|1",NA,"<strong>Director</strong>: orange lettuce","lettuce",2,"aap",1576515217408,"lettuce","pumpkin",1,38,NA,2,"Graduated College",NA,"english","target","banana",3866,"orange lettuce","white","orange","target","male",41,1576515199157,0.304183333333333,2,"754425874221049"
"Mon Dec 16 2019 11:53:19 GMT-0500 (Eastern Standard Time)","1576515491153",1,2,"red_tomato.png","white","e896661f9935453b43f686684dbbbc8207f720d4","1|0|3|2",NA,"<strong>Director</strong>: red tomato","egg",2,"atn",1576515217408,"swan","tomato",1,38,NA,2,"Graduated College",NA,"english","thirdDistractor","corn",3093,"red tomato","red","yellow","thirdDistractor","male",42,1576515199157,0.304183333333333,2,"754425874221049"
"Mon Dec 16 2019 11:53:19 GMT-0500 (Eastern Standard Time)","1576515495273",1,2,"orange_carrot.png","white","e896661f9935453b43f686684dbbbc8207f720d4","2|0|3|1",NA,"<strong>Director</strong>: carrot","carrot",2,"tan",1576515217408,"swan","tomato",1,38,NA,2,"Graduated College",NA,"english","target","lettuce",3808,"carrot","red","orange","target","male",43,1576515199157,0.304183333333333,2,"754425874221049"
"Mon Dec 16 2019 11:53:19 GMT-0500 (Eastern Standard Time)","1576515498837",1,2,"orange_carrot.png","green","e896661f9935453b43f686684dbbbc8207f720d4","2|1|3|0",NA,"<strong>Director</strong>: carrot","carrot",2,"ttp",1576515217408,"carrot","corn",1,38,NA,2,"Graduated College",NA,"english","target","pumpkin",2919,"carrot","yellow","orange","target","male",44,1576515199157,0.304183333333333,2,"754425874221049"
"Mon Dec 16 2019 11:53:19 GMT-0500 (Eastern Standard Time)","1576515501766",1,2,"white_swan.png","red","e896661f9935453b43f686684dbbbc8207f720d4","0|1|2|3",NA,"<strong>Director</strong>: swan","broccoli",2,"ttp",1576515217408,"broccoli","swan",1,38,NA,2,"Graduated College",NA,"english","thirdDistractor","lettuce",2694,"swan","white","green","thirdDistractor","male",45,1576515199157,0.304183333333333,2,"754425874221049"
"Mon Dec 16 2019 11:53:19 GMT-0500 (Eastern Standard Time)","1576515505476",1,2,"orange_carrot.png","yellow","e896661f9935453b43f686684dbbbc8207f720d4","1|3|2|0",NA,"<strong>Director</strong>: carrot","corn",2,"aap",1576515217408,"corn","carrot",1,38,NA,2,"Graduated College",NA,"english","thirdDistractor","broccoli",3121,"carrot","orange","red","thirdDistractor","male",46,1576515199157,0.304183333333333,2,"754425874221049"
"Mon Dec 16 2019 11:53:19 GMT-0500 (Eastern Standard Time)","1576515510137",1,2,"red_tomato.png","white","e896661f9935453b43f686684dbbbc8207f720d4","2|0|3|1",NA,"<strong>Director</strong>: red tomato","swan",2,"atp",1576515217408,"swan","tomato",1,38,NA,2,"Graduated College",NA,"english","thirdDistractor","lettuce",3992,"red tomato","red","green","thirdDistractor","male",47,1576515199157,0.304183333333333,2,"754425874221049"
"Mon Dec 16 2019 11:53:19 GMT-0500 (Eastern Standard Time)","1576515515052",1,2,"orange_lettuce.png","white","e896661f9935453b43f686684dbbbc8207f720d4","3|1|0|2",NA,"<strong>Director</strong>: orange lettuce","pumpkin",2,"tap",1576515217408,"pumpkin","corn",1,38,NA,2,"Graduated College",NA,"english","firstDistractor","lettuce",4503,"orange lettuce","red","orange","firstDistractor","male",48,1576515199157,0.304183333333333,2,"754425874221049"
"Mon Dec 16 2019 11:53:19 GMT-0500 (Eastern Standard Time)","1576515518979",1,2,"yellow_corn.png","white","e896661f9935453b43f686684dbbbc8207f720d4","2|0|1|3",NA,"<strong>Director</strong>: corn","corn",2,"ttn",1576515217408,"tomato","lettuce",1,38,NA,2,"Graduated College",NA,"english","target","banana",3168,"corn","green","yellow","target","male",49,1576515199157,0.304183333333333,2,"754425874221049"
"Mon Dec 16 2019 11:53:19 GMT-0500 (Eastern Standard Time)","1576515523135",1,2,"orange_banana.png","white","e896661f9935453b43f686684dbbbc8207f720d4","1|3|2|0",NA,"<strong>Director</strong>: orange banana","lettuce",2,"tan",1576515217408,"tomato","banana",1,38,NA,2,"Graduated College",NA,"english","thirdDistractor","carrot",3673,"orange banana","orange","green","thirdDistractor","male",50,1576515199157,0.304183333333333,2,"754425874221049"
"Mon Dec 16 2019 11:53:19 GMT-0500 (Eastern Standard Time)","1576515527491",1,2,"green_swan.png","yellow","e896661f9935453b43f686684dbbbc8207f720d4","1|3|0|2",NA,"<strong>Director</strong>: green swan","lettuce",2,"atn",1576515217408,"strawberry","swan",1,38,NA,2,"Graduated College",NA,"english","thirdDistractor","carrot",3650,"green swan","green","orange","thirdDistractor","male",51,1576515199157,0.304183333333333,2,"754425874221049"
"Mon Dec 16 2019 11:53:19 GMT-0500 (Eastern Standard Time)","1576515531320",1,2,"red_strawberry.png","green","e896661f9935453b43f686684dbbbc8207f720d4","2|0|1|3",NA,"<strong>Director</strong>: strawberry","tomato",2,"atn",1576515217408,"broccoli","strawberry",1,38,NA,2,"Graduated College",NA,"english","thirdDistractor","swan",3375,"strawberry","red","white","thirdDistractor","male",52,1576515199157,0.304183333333333,2,"754425874221049"
"Mon Dec 16 2019 11:53:19 GMT-0500 (Eastern Standard Time)","1576515535838",1,2,"green_carrot.png","yellow","e896661f9935453b43f686684dbbbc8207f720d4","2|0|1|3",NA,"<strong>Director</strong>: green carrot","carrot",2,"aan",1576515217408,"corn","tomato",1,38,NA,2,"Graduated College",NA,"english","target","swan",4097,"green carrot","white","green","target","male",53,1576515199157,0.304183333333333,2,"754425874221049"
"Mon Dec 16 2019 11:53:19 GMT-0500 (Eastern Standard Time)","1576515540262",1,2,"red_broccoli.png","green","e896661f9935453b43f686684dbbbc8207f720d4","0|1|3|2",NA,"<strong>Director</strong>: red califlower","swan",2,"tap",1576515217408,"swan","broccoli",1,38,NA,2,"Graduated College",NA,"english","thirdDistractor","tomato",3673,"red califlower","red","white","thirdDistractor","male",54,1576515199157,0.304183333333333,2,"754425874221049"
"Mon Dec 16 2019 11:53:19 GMT-0500 (Eastern Standard Time)","1576515544414",1,2,"orange_pumpkin.png","red","e896661f9935453b43f686684dbbbc8207f720d4","0|2|1|3",NA,"<strong>Director</strong>: pumpkin","pumpkin",2,"tan",1576515217408,"broccoli","egg",1,38,NA,2,"Graduated College",NA,"english","target","banana",3625,"pumpkin","yellow","orange","target","male",55,1576515199157,0.304183333333333,2,"754425874221049"
"Mon Dec 16 2019 11:53:19 GMT-0500 (Eastern Standard Time)","1576515547435",1,2,"white_swan.png","yellow","e896661f9935453b43f686684dbbbc8207f720d4","2|1|3|0",NA,"<strong>Director</strong>: swan","strawberry",2,"tap",1576515217408,"strawberry","swan",1,38,NA,2,"Graduated College",NA,"english","thirdDistractor","corn",3083,"swan","white","red","thirdDistractor","male",56,1576515199157,0.304183333333333,2,"754425874221049"
"Mon Dec 16 2019 11:53:19 GMT-0500 (Eastern Standard Time)","1576515551297",1,2,"white_egg.png","green","e896661f9935453b43f686684dbbbc8207f720d4","0|2|3|1",NA,"<strong>Director</strong>: egg","swan",2,"ttp",1576515217408,"swan","banana",1,38,NA,2,"Graduated College",NA,"english","firstDistractor","egg",2744,"egg","yellow","white","firstDistractor","male",57,1576515199157,0.304183333333333,2,"754425874221049"
"Mon Dec 16 2019 11:53:19 GMT-0500 (Eastern Standard Time)","1576515554285",1,2,"white_egg.png","yellow","e896661f9935453b43f686684dbbbc8207f720d4","2|3|0|1",NA,"<strong>Director</strong>: egg","egg",2,"tap",1576515217408,"egg","pumpkin",1,38,NA,2,"Graduated College",NA,"english","target","tomato",2054,"egg","orange","white","target","male",58,1576515199157,0.304183333333333,2,"754425874221049"
"Mon Dec 16 2019 11:53:19 GMT-0500 (Eastern Standard Time)","1576515556865",1,2,"orange_carrot.png","yellow","e896661f9935453b43f686684dbbbc8207f720d4","1|2|3|0",NA,"<strong>Director</strong>: carrot","tomato",2,"tan",1576515217408,"egg","carrot",1,38,NA,2,"Graduated College",NA,"english","thirdDistractor","corn",2735,"carrot","orange","red","thirdDistractor","male",59,1576515199157,0.304183333333333,2,"754425874221049"
"Mon Dec 16 2019 11:53:19 GMT-0500 (Eastern Standard Time)","1576515565222",1,2,"green_broccoli.png","green","e896661f9935453b43f686684dbbbc8207f720d4","0|3|2|1",NA,"<strong>Director</strong>: broccoli","broccoli",2,"atp",1576515217408,"broccoli","banana",1,38,NA,2,"Graduated College",NA,"english","secondDistractor","strawberry",7573,"broccoli","orange","red","secondDistractor","male",60,1576515199157,0.304183333333333,2,"754425874221049"
"Mon Dec 16 2019 11:53:09 GMT-0500 (Eastern Standard Time)","1576515256102",1,1,"white_egg.png","orange","cfd6841b3b6f3de83720f8a766e4ec2b0cd95421","3|2|1|0",NA,"<strong>Director</strong>: A egg","lettuce",2,"tan",1576515207899,"pumpkin","egg",1,23,NA,1,"Graduated High School",NA,"english","thirdDistractor","swan",19683,"A egg","white","green","thirdDistractor","male",1,1576515189860,0.30065,2,"468229422540150"
"Mon Dec 16 2019 11:53:09 GMT-0500 (Eastern Standard Time)","1576515264550",1,1,"white_pumpkin.png","red","cfd6841b3b6f3de83720f8a766e4ec2b0cd95421","0|1|3|2",NA,"<strong>Director</strong>: White pumpkin","pumpkin",2,"atn",1576515207899,"strawberry","swan",1,23,NA,1,"Graduated High School",NA,"english","target","egg",5322,"White pumpkin","green","white","target","male",2,1576515189860,0.30065,2,"468229422540150"
"Mon Dec 16 2019 11:53:09 GMT-0500 (Eastern Standard Time)","1576515272128",1,1,"orange_lettuce.png","red","cfd6841b3b6f3de83720f8a766e4ec2b0cd95421","2|3|1|0",NA,"<strong>Director</strong>: weird orange ball","corn",2,"tap",1576515207899,"corn","lettuce",1,23,NA,1,"Graduated High School",NA,"english","thirdDistractor","egg",9464,"weird orange ball","orange","yellow","thirdDistractor","male",3,1576515189860,0.30065,2,"468229422540150"
"Mon Dec 16 2019 11:53:09 GMT-0500 (Eastern Standard Time)","1576515283787",1,1,"orange_lettuce.png","white","cfd6841b3b6f3de83720f8a766e4ec2b0cd95421","0|1|2|3",NA,"<strong>Director</strong>: another weird orange thing","corn",2,"tan",1576515207899,"tomato","lettuce",1,23,NA,1,"Graduated High School",NA,"english","thirdDistractor","egg",9674,"another weird orange thing","orange","yellow","thirdDistractor","male",4,1576515189860,0.30065,2,"468229422540150"
"Mon Dec 16 2019 11:53:09 GMT-0500 (Eastern Standard Time)","1576515292526",1,1,"green_carrot.png","yellow","cfd6841b3b6f3de83720f8a766e4ec2b0cd95421","3|1|0|2",NA,"<strong>Director</strong>: a green carrot","egg",2,"tap",1576515207899,"egg","carrot",1,23,NA,1,"Graduated High School",NA,"english","thirdDistractor","pumpkin",7840,"a green carrot","green","white","thirdDistractor","male",5,1576515189860,0.30065,2,"468229422540150"
"Mon Dec 16 2019 11:53:09 GMT-0500 (Eastern Standard Time)","1576515298898",1,1,"green_swan.png","white","cfd6841b3b6f3de83720f8a766e4ec2b0cd95421","0|3|2|1",NA,"<strong>Director</strong>: a green swan","swan",2,"aap",1576515207899,"swan","corn",1,23,NA,1,"Graduated High School",NA,"english","target","carrot",5218,"a green swan","red","green","target","male",6,1576515189860,0.30065,2,"468229422540150"
"Mon Dec 16 2019 11:53:09 GMT-0500 (Eastern Standard Time)","1576515307109",1,1,"yellow_banana.png","yellow","cfd6841b3b6f3de83720f8a766e4ec2b0cd95421","3|1|2|0",NA,"<strong>Director</strong>: a yellow banana","banana",2,"atp",1576515207899,"banana","swan",1,23,NA,1,"Graduated High School",NA,"english","secondDistractor","carrot",7770,"a yellow banana","white","orange","secondDistractor","male",7,1576515189860,0.30065,2,"468229422540150"
"Mon Dec 16 2019 11:53:09 GMT-0500 (Eastern Standard Time)","1576515312885",1,1,"red_tomato.png","red","cfd6841b3b6f3de83720f8a766e4ec2b0cd95421","0|2|3|1",NA,"<strong>Director</strong>: red tomato","tomato",2,"aap",1576515207899,"tomato","corn",1,23,NA,1,"Graduated High School",NA,"english","secondDistractor","pumpkin",5242,"red tomato","yellow","white","secondDistractor","male",8,1576515189860,0.30065,2,"468229422540150"
"Mon Dec 16 2019 11:53:09 GMT-0500 (Eastern Standard Time)","1576515317610",1,1,"orange_banana.png","yellow","cfd6841b3b6f3de83720f8a766e4ec2b0cd95421","1|2|0|3",NA,"<strong>Director</strong>: orange banana","swan",2,"tan",1576515207899,"strawberry","banana",1,23,NA,1,"Graduated High School",NA,"english","thirdDistractor","tomato",5072,"orange banana","orange","white","thirdDistractor","male",9,1576515189860,0.30065,2,"468229422540150"
"Mon Dec 16 2019 11:53:09 GMT-0500 (Eastern Standard Time)","1576515322656",1,1,"red_corn.png","yellow","cfd6841b3b6f3de83720f8a766e4ec2b0cd95421","3|1|2|0",NA,"<strong>Director</strong>: red corn","corn",2,"atp",1576515207899,"corn","carrot",1,23,NA,1,"Graduated High School",NA,"english","target","tomato",3993,"red corn","orange","red","target","male",10,1576515189860,0.30065,2,"468229422540150"
"Mon Dec 16 2019 11:53:09 GMT-0500 (Eastern Standard Time)","1576515327501",1,1,"red_strawberry.png","yellow","cfd6841b3b6f3de83720f8a766e4ec2b0cd95421","0|2|3|1",NA,"<strong>Director</strong>: strawberry","strawberry",2,"ttn",1576515207899,"egg","swan",1,23,NA,1,"Graduated High School",NA,"english","target","tomato",3990,"strawberry","white","red","target","male",11,1576515189860,0.30065,2,"468229422540150"
"Mon Dec 16 2019 11:53:09 GMT-0500 (Eastern Standard Time)","1576515331789",1,1,"white_swan.png","yellow","cfd6841b3b6f3de83720f8a766e4ec2b0cd95421","1|2|3|0",NA,"<strong>Director</strong>: swan","swan",2,"tan",1576515207899,"strawberry","banana",1,23,NA,1,"Graduated High School",NA,"english","target","pumpkin",3708,"swan","orange","white","target","male",12,1576515189860,0.30065,2,"468229422540150"
"Mon Dec 16 2019 11:53:09 GMT-0500 (Eastern Standard Time)","1576515338304",1,1,"red_strawberry.png","yellow","cfd6841b3b6f3de83720f8a766e4ec2b0cd95421","1|3|0|2",NA,"<strong>Director</strong>: strawberry","strawberry",2,"ttp",1576515207899,"strawberry","egg",1,23,NA,1,"Graduated High School",NA,"english","target","tomato",5896,"strawberry","white","red","target","male",13,1576515189860,0.30065,2,"468229422540150"
"Mon Dec 16 2019 11:53:09 GMT-0500 (Eastern Standard Time)","1576515342727",1,1,"green_swan.png","orange","cfd6841b3b6f3de83720f8a766e4ec2b0cd95421","0|1|3|2",NA,"<strong>Director</strong>: green swan","lettuce",2,"tap",1576515207899,"lettuce","tomato",1,23,NA,1,"Graduated High School",NA,"english","firstDistractor","swan",4121,"green swan","red","green","firstDistractor","male",14,1576515189860,0.30065,2,"468229422540150"
"Mon Dec 16 2019 11:53:09 GMT-0500 (Eastern Standard Time)","1576515348615",1,1,"yellow_strawberry.png","green","cfd6841b3b6f3de83720f8a766e4ec2b0cd95421","2|0|1|3",NA,"<strong>Director</strong>: yellow strawberry","strawberry",2,"atn",1576515207899,"carrot","corn",1,23,NA,1,"Graduated High School",NA,"english","target","banana",5138,"yellow strawberry","red","yellow","target","male",15,1576515189860,0.30065,2,"468229422540150"
"Mon Dec 16 2019 11:53:09 GMT-0500 (Eastern Standard Time)","1576515354183",1,1,"white_tomato.png","orange","cfd6841b3b6f3de83720f8a766e4ec2b0cd95421","2|0|1|3",NA,"<strong>Director</strong>: white tomato","tomato",2,"aan",1576515207899,"carrot","broccoli",1,23,NA,1,"Graduated High School",NA,"english","target","pumpkin",5904,"white tomato","red","white","target","male",16,1576515189860,0.30065,2,"468229422540150"
"Mon Dec 16 2019 11:53:09 GMT-0500 (Eastern Standard Time)","1576515359978",1,1,"red_strawberry.png","orange","cfd6841b3b6f3de83720f8a766e4ec2b0cd95421","0|3|2|1",NA,"<strong>Director</strong>: strawberry","strawberry",2,"tan",1576515207899,"banana","corn",1,23,NA,1,"Graduated High School",NA,"english","target","broccoli",4498,"strawberry","yellow","red","target","male",17,1576515189860,0.30065,2,"468229422540150"
"Mon Dec 16 2019 11:53:09 GMT-0500 (Eastern Standard Time)","1576515364934",1,1,"red_tomato.png","red","cfd6841b3b6f3de83720f8a766e4ec2b0cd95421","1|3|2|0",NA,"<strong>Director</strong>: red tomato","tomato",2,"atp",1576515207899,"tomato","lettuce",1,23,NA,1,"Graduated High School",NA,"english","secondDistractor","egg",4318,"red tomato","green","white","secondDistractor","male",18,1576515189860,0.30065,2,"468229422540150"
"Mon Dec 16 2019 11:53:09 GMT-0500 (Eastern Standard Time)","1576515368286",1,1,"white_egg.png","yellow","cfd6841b3b6f3de83720f8a766e4ec2b0cd95421","1|2|3|0",NA,"<strong>Director</strong>: egg","egg",2,"ttn",1576515207899,"strawberry","lettuce",1,23,NA,1,"Graduated High School",NA,"english","target","swan",2774,"egg","orange","white","target","male",19,1576515189860,0.30065,2,"468229422540150"
"Mon Dec 16 2019 11:53:09 GMT-0500 (Eastern Standard Time)","1576515377981",1,1,"red_broccoli.png","white","cfd6841b3b6f3de83720f8a766e4ec2b0cd95421","2|1|0|3",NA,"<strong>Director</strong>: red califlower","broccoli",2,"atn",1576515207899,"pumpkin","banana",1,23,NA,1,"Graduated High School",NA,"english","target","strawberry",9561,"red califlower","orange","red","target","male",20,1576515189860,0.30065,2,"468229422540150"
"Mon Dec 16 2019 11:53:09 GMT-0500 (Eastern Standard Time)","1576515383977",1,1,"green_carrot.png","green","cfd6841b3b6f3de83720f8a766e4ec2b0cd95421","1|0|3|2",NA,"<strong>Director</strong>: green carrot","carrot",2,"tap",1576515207899,"carrot","strawberry",1,23,NA,1,"Graduated High School",NA,"english","secondDistractor","lettuce",5502,"green carrot","red","orange","secondDistractor","male",21,1576515189860,0.30065,2,"468229422540150"
"Mon Dec 16 2019 11:53:09 GMT-0500 (Eastern Standard Time)","1576515389052",1,1,"yellow_egg.png","white","cfd6841b3b6f3de83720f8a766e4ec2b0cd95421","3|0|1|2",NA,"<strong>Director</strong>: Yellow egg","egg",2,"atp",1576515207899,"egg","carrot",1,23,NA,1,"Graduated High School",NA,"english","target","corn",4220,"Yellow egg","green","yellow","target","male",22,1576515189860,0.30065,2,"468229422540150"
"Mon Dec 16 2019 11:53:09 GMT-0500 (Eastern Standard Time)","1576515393904",1,1,"white_pumpkin.png","green","cfd6841b3b6f3de83720f8a766e4ec2b0cd95421","3|0|2|1",NA,"<strong>Director</strong>: white pumpkin","pumpkin",2,"aan",1576515207899,"carrot","corn",1,23,NA,1,"Graduated High School",NA,"english","target","tomato",5100,"white pumpkin","yellow","white","target","male",23,1576515189860,0.30065,2,"468229422540150"
"Mon Dec 16 2019 11:53:09 GMT-0500 (Eastern Standard Time)","1576515399632",1,1,"white_swan.png","yellow","cfd6841b3b6f3de83720f8a766e4ec2b0cd95421","0|2|1|3",NA,"<strong>Director</strong>: swan","egg",2,"ttp",1576515207899,"egg","lettuce",1,23,NA,1,"Graduated High School",NA,"english","firstDistractor","swan",4099,"swan","green","white","firstDistractor","male",24,1576515189860,0.30065,2,"468229422540150"
"Mon Dec 16 2019 11:53:09 GMT-0500 (Eastern Standard Time)","1576515404420",1,1,"green_lettuce.png","red","cfd6841b3b6f3de83720f8a766e4ec2b0cd95421","2|3|1|0",NA,"<strong>Director</strong>: lettuce","pumpkin",2,"atn",1576515207899,"corn","lettuce",1,23,NA,1,"Graduated High School",NA,"english","thirdDistractor","swan",4331,"lettuce","green","white","thirdDistractor","male",25,1576515189860,0.30065,2,"468229422540150"
"Mon Dec 16 2019 11:53:09 GMT-0500 (Eastern Standard Time)","1576515409231",1,1,"orange_banana.png","green","cfd6841b3b6f3de83720f8a766e4ec2b0cd95421","2|0|3|1",NA,"<strong>Director</strong>: orange banana","broccoli",2,"aap",1576515207899,"broccoli","banana",1,23,NA,1,"Graduated High School",NA,"english","thirdDistractor","corn",4075,"orange banana","orange","red","thirdDistractor","male",26,1576515189860,0.30065,2,"468229422540150"
"Mon Dec 16 2019 11:53:09 GMT-0500 (Eastern Standard Time)","1576515418099",1,1,"green_broccoli.png","orange","cfd6841b3b6f3de83720f8a766e4ec2b0cd95421","3|2|0|1",NA,"<strong>Director</strong>: broccoli","carrot",2,"atp",1576515207899,"carrot","egg",1,23,NA,1,"Graduated High School",NA,"english","firstDistractor","broccoli",8231,"broccoli","white","green","firstDistractor","male",27,1576515189860,0.30065,2,"468229422540150"
"Mon Dec 16 2019 11:53:09 GMT-0500 (Eastern Standard Time)","1576515422970",1,1,"orange_lettuce.png","yellow","cfd6841b3b6f3de83720f8a766e4ec2b0cd95421","2|0|1|3",NA,"<strong>Director</strong>: orange lettuce","strawberry",2,"tap",1576515207899,"strawberry","lettuce",1,23,NA,1,"Graduated High School",NA,"english","thirdDistractor","broccoli",4830,"orange lettuce","orange","red","thirdDistractor","male",28,1576515189860,0.30065,2,"468229422540150"
"Mon Dec 16 2019 11:53:09 GMT-0500 (Eastern Standard Time)","1576515431110",1,1,"orange_pumpkin.png","green","cfd6841b3b6f3de83720f8a766e4ec2b0cd95421","1|0|3|2",NA,"<strong>Director</strong>: pumpkin","pumpkin",2,"ttn",1576515207899,"lettuce","tomato",1,23,NA,1,"Graduated High School",NA,"english","target","carrot",7267,"pumpkin","red","orange","target","male",29,1576515189860,0.30065,2,"468229422540150"
"Mon Dec 16 2019 11:53:09 GMT-0500 (Eastern Standard Time)","1576515434273",1,1,"white_swan.png","red","cfd6841b3b6f3de83720f8a766e4ec2b0cd95421","1|0|3|2",NA,"<strong>Director</strong>: swan","tomato",2,"atp",1576515207899,"tomato","strawberry",1,23,NA,1,"Graduated High School",NA,"english","firstDistractor","swan",2651,"swan","yellow","white","firstDistractor","male",30,1576515189860,0.30065,2,"468229422540150"
"Mon Dec 16 2019 11:53:09 GMT-0500 (Eastern Standard Time)","1576515439768",1,1,"green_broccoli.png","red","cfd6841b3b6f3de83720f8a766e4ec2b0cd95421","0|1|3|2",NA,"<strong>Director</strong>: broccoli","broccoli",2,"tap",1576515207899,"broccoli","pumpkin",1,23,NA,1,"Graduated High School",NA,"english","target","swan",4662,"broccoli","white","green","target","male",31,1576515189860,0.30065,2,"468229422540150"
"Mon Dec 16 2019 11:53:09 GMT-0500 (Eastern Standard Time)","1576515443321",1,1,"white_egg.png","white","cfd6841b3b6f3de83720f8a766e4ec2b0cd95421","1|3|0|2",NA,"<strong>Director</strong>: egg","egg",2,"atp",1576515207899,"egg","lettuce",1,23,NA,1,"Graduated High School",NA,"english","secondDistractor","banana",2980,"egg","orange","yellow","secondDistractor","male",32,1576515189860,0.30065,2,"468229422540150"
"Mon Dec 16 2019 11:53:09 GMT-0500 (Eastern Standard Time)","1576515448436",1,1,"orange_lettuce.png","green","cfd6841b3b6f3de83720f8a766e4ec2b0cd95421","3|0|2|1",NA,"<strong>Director</strong>: orange lettuce","lettuce",2,"atn",1576515207899,"carrot","swan",1,23,NA,1,"Graduated High School",NA,"english","target","pumpkin",5074,"orange lettuce","white","orange","target","male",33,1576515189860,0.30065,2,"468229422540150"
"Mon Dec 16 2019 11:53:09 GMT-0500 (Eastern Standard Time)","1576515453864",1,1,"yellow_strawberry.png","white","cfd6841b3b6f3de83720f8a766e4ec2b0cd95421","0|1|3|2",NA,"<strong>Director</strong>: yellow strawberry","egg",2,"aap",1576515207899,"egg","lettuce",1,23,NA,1,"Graduated High School",NA,"english","firstDistractor","strawberry",4800,"yellow strawberry","green","yellow","firstDistractor","male",34,1576515189860,0.30065,2,"468229422540150"
"Mon Dec 16 2019 11:53:09 GMT-0500 (Eastern Standard Time)","1576515458007",1,1,"red_broccoli.png","yellow","cfd6841b3b6f3de83720f8a766e4ec2b0cd95421","1|0|2|3",NA,"<strong>Director</strong>: red califlower","broccoli",2,"aan",1576515207899,"strawberry","pumpkin",1,23,NA,1,"Graduated High School",NA,"english","target","corn",3753,"red califlower","orange","red","target","male",35,1576515189860,0.30065,2,"468229422540150"
"Mon Dec 16 2019 11:53:09 GMT-0500 (Eastern Standard Time)","1576515463011",1,1,"orange_pumpkin.png","orange","cfd6841b3b6f3de83720f8a766e4ec2b0cd95421","3|0|1|2",NA,"<strong>Director</strong>: pumpkin","pumpkin",2,"atp",1576515207899,"pumpkin","swan",1,23,NA,1,"Graduated High School",NA,"english","secondDistractor","egg",3886,"pumpkin","green","white","secondDistractor","male",36,1576515189860,0.30065,2,"468229422540150"
"Mon Dec 16 2019 11:53:09 GMT-0500 (Eastern Standard Time)","1576515469087",1,1,"yellow_strawberry.png","orange","cfd6841b3b6f3de83720f8a766e4ec2b0cd95421","2|3|0|1",NA,"<strong>Director</strong>: yellow strawberry","broccoli",2,"tan",1576515207899,"banana","strawberry",1,23,NA,1,"Graduated High School",NA,"english","thirdDistractor","carrot",5173,"yellow strawberry","yellow","green","thirdDistractor","male",37,1576515189860,0.30065,2,"468229422540150"
"Mon Dec 16 2019 11:53:09 GMT-0500 (Eastern Standard Time)","1576515472963",1,1,"green_swan.png","orange","cfd6841b3b6f3de83720f8a766e4ec2b0cd95421","0|1|2|3",NA,"<strong>Director</strong>: green swan","carrot",2,"aap",1576515207899,"carrot","strawberry",1,23,NA,1,"Graduated High School",NA,"english","firstDistractor","swan",3431,"green swan","red","green","firstDistractor","male",38,1576515189860,0.30065,2,"468229422540150"
"Mon Dec 16 2019 11:53:09 GMT-0500 (Eastern Standard Time)","1576515477551",1,1,"yellow_egg.png","red","cfd6841b3b6f3de83720f8a766e4ec2b0cd95421","0|2|1|3",NA,"<strong>Director</strong>: yellow egg","carrot",2,"tan",1576515207899,"tomato","egg",1,23,NA,1,"Graduated High School",NA,"english","thirdDistractor","banana",4456,"yellow egg","yellow","orange","thirdDistractor","male",39,1576515189860,0.30065,2,"468229422540150"
"Mon Dec 16 2019 11:53:09 GMT-0500 (Eastern Standard Time)","1576515482566",1,1,"orange_lettuce.png","orange","cfd6841b3b6f3de83720f8a766e4ec2b0cd95421","0|3|2|1",NA,"<strong>Director</strong>: orange lettuce","lettuce",2,"tap",1576515207899,"lettuce","strawberry",1,23,NA,1,"Graduated High School",NA,"english","secondDistractor","carrot",4386,"orange lettuce","red","green","secondDistractor","male",40,1576515189860,0.30065,2,"468229422540150"
"Mon Dec 16 2019 11:53:09 GMT-0500 (Eastern Standard Time)","1576515487185",1,1,"orange_lettuce.png","green","cfd6841b3b6f3de83720f8a766e4ec2b0cd95421","1|0|2|3",NA,"<strong>Director</strong>: orange lettuce","lettuce",2,"aap",1576515207899,"lettuce","pumpkin",1,23,NA,1,"Graduated High School",NA,"english","target","banana",3866,"orange lettuce","white","orange","target","male",41,1576515189860,0.30065,2,"468229422540150"
"Mon Dec 16 2019 11:53:09 GMT-0500 (Eastern Standard Time)","1576515491153",1,1,"red_tomato.png","white","cfd6841b3b6f3de83720f8a766e4ec2b0cd95421","1|2|3|0",NA,"<strong>Director</strong>: red tomato","egg",2,"atn",1576515207899,"swan","tomato",1,23,NA,1,"Graduated High School",NA,"english","thirdDistractor","corn",3093,"red tomato","red","yellow","thirdDistractor","male",42,1576515189860,0.30065,2,"468229422540150"
"Mon Dec 16 2019 11:53:09 GMT-0500 (Eastern Standard Time)","1576515495273",1,1,"orange_carrot.png","white","cfd6841b3b6f3de83720f8a766e4ec2b0cd95421","3|0|2|1",NA,"<strong>Director</strong>: carrot","carrot",2,"tan",1576515207899,"swan","tomato",1,23,NA,1,"Graduated High School",NA,"english","target","lettuce",3808,"carrot","red","orange","target","male",43,1576515189860,0.30065,2,"468229422540150"
"Mon Dec 16 2019 11:53:09 GMT-0500 (Eastern Standard Time)","1576515498837",1,1,"orange_carrot.png","green","cfd6841b3b6f3de83720f8a766e4ec2b0cd95421","3|1|2|0",NA,"<strong>Director</strong>: carrot","carrot",2,"ttp",1576515207899,"carrot","corn",1,23,NA,1,"Graduated High School",NA,"english","target","pumpkin",2919,"carrot","yellow","orange","target","male",44,1576515189860,0.30065,2,"468229422540150"
